sequence	time_seconds	time_nseconds	orientation_x	orientation_y	orientation_z	orientation_w	angular_velocity_x	angular_velocity_y	angular_velocity_z	linear_acceleration_x	linear_acceleration_y	linear_acceleration_z	mag_x	mag_y	mag_z
37642	752	939900000	0.0035649517875837866	0.0014639761085738585	-0.9259240162211757	0.37769016942138417	0.0007753383046852252	1.7068863643007028e-05	-0.10161235287680188	-0.07566083036384368	-0.009933836541028009	9.799676697514311	-0.35066244295107274	0.3497333504611464	-0.8459736281488238
37643	752	959900000	0.0035665598132546827	0.0014605107019157787	-0.9263070912731147	0.37674967712889923	0.0007729662471072838	1.9127374777694723e-05	-0.10154935484540191	-0.07570440875145656	-0.009923969681294494	9.799665705709	-0.3513716771834108	0.3490070087971197	-0.8625439657200515
37644	752	979900000	0.003568184196347751	0.0014570854594763375	-0.9266889430721301	0.37580945670826765	0.0007695864494631914	2.2552333912060874e-05	-0.10147809704034352	-0.07576552401638224	-0.009926160983298061	9.799657931090072	-0.3520788789496684	0.34827978865379117	-0.8816566022121729
37645	752	999900000	0.0035698356899381213	0.0014537196321297912	-0.9270695269977122	0.3748696241156602	0.0007647762314136901	2.76934007114651e-05	-0.10139452677163113	-0.07584510665331827	-0.009919726457005706	9.799644326471416	-0.35278393316659773	0.34755180792953344	-0.8924804052429343
37646	753	19900000	0.0035715336126803275	0.0014504535396845744	-0.9274487525270327	0.3739304103282236	0.0007568522228564664	3.613143404759833e-05	-0.10128626587866146	-0.07596668731367887	-0.009912206922993645	9.799629709645437	-0.35348661223106626	0.3468233020539286	-0.867573304388396
37647	753	39900000	0.0035733196391357957	0.0014473607967020014	-0.9278264336274451	0.3729922862414946	0.0007434562091170426	5.1178210008296706e-05	-0.10112749987828346	-0.0762791664088719	-0.00990091939235862	9.799595871178925	-0.35418645390914555	0.34609473184071926	-0.877493876416624
37648	753	59900000	0.003575279301017589	0.0014445978247723363	-0.9282021229719055	0.3720563793640582	0.0007182550829962429	7.997958246778275e-05	-0.10084758295352814	-0.07718132323726226	-0.009898568931112094	9.799525889386024	-0.3548823870727905	0.3453671727223441	-0.847644772064701
37649	753	79900000	0.0035775971416000594	0.0014425009868159102	-0.9285743444989084	0.3711264026285628	0.0006671294914365199	0.0001383929290890923	-0.10016830962268246	-0.08037215132280881	-0.009944968298524828	9.799804373425042	-0.3555711550923296	0.344643931353995	-0.8673543947101631
37650	753	99900000	0.0035794545245477556	0.0014391317445298967	-0.9289340337005602	0.37022517126464455	0.0007561011764116329	4.875075324887292e-05	-0.09703359015293436	-0.10299353714046566	-0.009220459725733033	9.800472685458704	-0.3562384660251269	0.343940098853004	-0.8743968448242483
37651	753	119900000	0.003581028526888918	0.0014359391320785471	-0.9292543430266277	0.3694204654315317	0.0006889837764141737	2.9170393168885338e-05	-0.08660916258041952	-0.13888898369187266	-0.008736562444164368	9.799371688587646	-0.35683318133695074	0.34331054160862495	-0.8786474000906528
37652	753	139900000	0.0035753409709803814	0.0014236438295664627	-0.9295163966565352	0.3687607063148659	0.001206327399853605	-0.0009818370820195918	-0.07098561951301807	-0.14181366389822816	-0.006939317900607124	9.797643398927477	-0.3573372692559871	0.34278262211713223	-0.8725379719762494
37653	753	159900000	0.003577583468728838	0.0014217232014038864	-0.9297415905645278	0.36819255067723033	0.0004964146781063712	0.00013798925776024103	-0.06111426245639537	-0.09766359956552975	-0.005889039500372409	9.8005386052278	-0.3577535773934479	0.3423369738606354	-0.8436715670526195
37654	753	179900000	0.00357776401125955	0.001419305484250916	-0.9299593492764017	0.36764220904302325	0.00045928126174055254	-7.18944084982253e-05	-0.05918437698463531	-0.06935446823181649	-0.005516448708401997	9.80050109654006	-0.3581597912014704	0.3419052844368424	-0.8674531015705327
37655	753	199900000	0.003578378935374272	0.0014168826523635414	-0.9301928712032482	0.36705096377805874	0.0004925982539477206	-3.152095574791479e-05	-0.06356770806559675	-0.04232385830072663	-0.005928548187670805	9.79959843471189	-0.3585947266074493	0.3414411005017035	-0.8491417223167526
37656	753	219900000	0.0035793135309730288	0.001414139664370431	-0.9304653127576313	0.36635978283444287	0.0005753877662869281	-1.3303906599002748e-05	-0.07429204502460068	-0.013904891438972285	-0.0066696508752949486	9.800194212775	-0.35910188147769523	0.3408979108595883	-0.8782781285784009
37657	753	239900000	0.0035806704579030933	0.001411368054966052	-0.9307990238861337	0.3655110996562294	0.0006585628107003402	2.528670430774245e-05	-0.09119168826004415	0.008727613464953876	-0.008548980738296278	9.79793770373046	-0.35972257517637896	0.34023095913972995	-0.8489872435224907
37658	753	259900000	0.0035839063154637103	0.0014102346518918116	-0.9311673048157003	0.36457182734821025	0.0006120717912819349	0.000260462838222738	-0.10088760607538706	-0.07953197327959607	-0.009888055382132969	9.80319050648755	-0.36040380754472623	0.33949380501975	-0.8621364358821912
37659	753	279900000	0.0035862957605277317	0.0014074808120200088	-0.931533364223156	0.3636354614439725	0.0007307488574511907	0.0001229573915908361	-0.10053551926450781	-0.0732590156696471	-0.009802658366743138	9.799012222725368	-0.3610835529207941	0.33875575583878337	-0.8695254578426864
37660	753	299900000	0.0035878919995940336	0.001403991735025742	-0.9318978931376571	0.36270025172834275	0.0007697648142292897	2.271790921238275e-05	-0.1003720101539015	-0.07448032053624554	-0.00975816303823078	9.799116883460098	-0.36176244865151813	0.3380168446127203	-0.8483429132931312
37661	753	319900000	0.0035893422772827898	0.0014004084547120023	-0.9322612638965014	0.36176524337790433	0.0007730147276974105	6.08630186737737e-06	-0.10031122532534997	-0.07521024838088976	-0.009736543226811075	9.79951341941463	-0.36243973860435724	0.3372769558062585	-0.8849754373667312
37662	753	339900000	0.0035908192861382787	0.0013968310298842523	-0.9326235518628039	0.36083024456208823	0.0007732808266208206	9.177492713312238e-06	-0.10027116312210453	-0.07543229163652873	-0.009736953767699843	9.799644247255372	-0.3631152194388919	0.3365359959865809	-0.8670844815076922
37663	753	359900000	0.0035923106828303513	0.001393244796937907	-0.9329848027847726	0.35989514020830143	0.0007745144884687571	1.0588638666226151e-05	-0.10024358095422167	-0.07533936747089451	-0.009735195870841155	9.799683199146466	-0.3637890031920555	0.33579386222031493	-0.8882372483776998
37664	753	379900000	0.0035938136448596413	0.0013896490703658405	-0.9333451118903148	0.35895968504750386	0.0007758112628998063	1.1713201987212405e-05	-0.10024241015218965	-0.07529981470822732	-0.009728027513638727	9.799691909724546	-0.3644612702982383	0.33505036503418606	-0.8704829218684593
37665	753	399900000	0.0035953199117492495	0.001386049025167614	-0.9337045091828043	0.3580238009888877	0.0007763603989068676	1.2253928696322709e-05	-0.10024970870091252	-0.07534427364837332	-0.009722826758656008	9.799697715338343	-0.36513208484806653	0.33430545863593497	-0.8563122365403969
37666	753	419900000	0.0035968205732440205	0.0013824438924761179	-0.9340630471084977	0.3570873503178691	0.0007767193371048842	1.1935911147646901e-05	-0.1002718451621932	-0.07534143794400522	-0.009734699152868592	9.799704507463355	-0.3658015577154128	0.33355904048081564	-0.8866934021680102
37667	753	439900000	0.0035983228181322422	0.0013788335568697282	-0.9344207502121472	0.3561502666907422	0.0007773741169748071	1.2285793772778816e-05	-0.10030115475940743	-0.0753725957531608	-0.009731584012553385	9.799703561377163	-0.36646972134527256	0.3328110549663663	-0.8497233065155477
37668	753	459900000	0.0035998263285793317	0.0013752173459462397	-0.9347776707477057	0.3552124101142153	0.000778138420632103	1.258297080921192e-05	-0.10034550726007176	-0.07540514129616424	-0.009741715788475514	9.79969618423217	-0.3671366725381594	0.3320613915788576	-0.8818122282015916
37669	753	479900000	0.0036013360873151518	0.0013715812944474549	-0.9351338263630462	0.3542737302351774	0.0007804062022966889	1.2850865062302662e-05	-0.10039528885599619	-0.07542188909990191	-0.009738759479819878	9.799710951493207	-0.36780244305524046	0.3313099855092415	-0.8654501351635482
37670	753	499900000	0.00360286376748285	0.0013679351172998064	-0.9354892383391059	0.3533341663042327	0.0007822043764008826	1.455709833409387e-05	-0.10045160828999057	-0.07544083050892911	-0.009744133998052143	9.799704871731901	-0.3684670461387307	0.33055679781312874	-0.863540295971955
37671	753	519900000	0.0036044163118011817	0.0013642779810364204	-0.9358439259572445	0.35239366222673935	0.0007843477601890613	1.688547249661572e-05	-0.10051395661113297	-0.07546579746154648	-0.009750978863658328	9.799697367468784	-0.36913050546333565	0.3298017788461156	-0.8898639747133598
37672	753	539900000	0.0036060069909117976	0.0013606067235026908	-0.936197912000199	0.3514521518349167	0.0007872801406990597	2.0346835996109227e-05	-0.10058339862886145	-0.07549484582630382	-0.009758901826355068	9.79968553145074	-0.3697928424457022	0.32904486310262376	-0.8649696671601612
37673	753	559900000	0.0036076544882297883	0.001356912944615386	-0.9365512403384766	0.3505095117636832	0.0007917033495791026	2.526550143009122e-05	-0.1006660279875147	-0.075502969229569	-0.009762403997012321	9.799675578868074	-0.37045411240270587	0.3282859274168062	-0.8607760276032766
37674	753	579900000	0.003609395023517859	0.001353184350752293	-0.9369040158118189	0.34956545354963786	0.0007986616193876979	3.315057159173414e-05	-0.10077944077700224	-0.07556322416542838	-0.009811100320560174	9.799669059633347	-0.3711144588139902	0.3275246992697781	-0.8663278839353253
37675	753	599900000	0.0036112845359496984	0.0013494009805264811	-0.9372563572822015	0.3486196472878323	0.0008095735780485639	4.558670162940945e-05	-0.10092800495194103	-0.07573928674862364	-0.009786443306606477	9.799635116085462	-0.37177402417124916	0.32676084753583357	-0.8652233467372007
37676	753	619900000	0.003613446248887622	0.0013455222177795906	-0.93760854544504	0.34767132191856764	0.0008288927851143611	6.816859260949498e-05	-0.1011586942325263	-0.07620428379063843	-0.009793990082673051	9.79959838669804	-0.37243315762737245	0.32599361222768186	-0.8702691697214388
37677	753	639900000	0.0036154673331133297	0.0013416973093405686	-0.9379618065645211	0.3467171436063021	0.0008212134007383553	5.725530184640494e-05	-0.10174481348698323	-0.08028728439697183	-0.009983379021646976	9.800619382544404	-0.3730947397407915	0.3252208045723639	-0.8864513542832455
37678	753	659900000	0.003617292426357864	0.001337980820928735	-0.9383290563354237	0.3457220083238821	0.0008209333975693619	4.3068837220786014e-05	-0.10607149921446402	-0.10169977165133637	-0.009985224180074692	9.799356871215736	-0.3737830692329938	0.3244143131328232	-0.847878780222101
37679	753	679900000	0.0036192277239676432	0.0013338750202404827	-0.9387328425417518	0.3446241029028517	0.0009033372286130897	4.048440230405744e-05	-0.11697771613709815	-0.12531124425170084	-0.011088890477633798	9.799373253410378	-0.374540308567006	0.32352324231457774	-0.8593088956057093
37680	753	699900000	0.003616285195354823	0.0013309800037247575	-0.9391946691496939	0.3433635455525425	0.0006881845952418634	-0.0003749971546867567	-0.13424770155550797	-0.14309011127518928	-0.01280873482383895	9.802838851228685	-0.3754141034552301	0.3225044853432455	-0.8580234417310779
37681	753	719900000	0.00361435641991217	0.0013261475893494594	-0.9397158631199383	0.34193460538674736	0.0009737464320177377	-0.0003453667130430498	-0.15209976741405568	-0.1275468843638348	-0.013960299271691862	9.796540005501154	-0.3763993984131203	0.32134405529853505	-0.8795636917903736
37682	753	739900000	0.0036167120780046615	0.0013204699786095756	-0.9402737221745708	0.340397566296762	0.0012436037981439073	2.943170492636906e-05	-0.1635108414511251	-0.10671050714651521	-0.01502286043998484	9.798173758280468	-0.37744770178246245	0.320089819931987	-0.8669356540561538
37683	753	759900000	0.00361897847486359	0.001314468546061436	-0.9408482535686978	0.33880634427939976	0.0012928114808867478	1.1140670082670827e-05	-0.1691729446185772	-0.0851786040875062	-0.015585998619974617	9.800031528387668	-0.37852831837003004	0.3187884438935453	-0.8432350768544131
37684	753	779900000	0.00362096800307965	0.0013083384314838246	-0.941420641917956	0.33721262107467576	0.001296161502500028	-1.816397408500363e-05	-0.16933565073365978	-0.06629827186724703	-0.01569361418753163	9.799773877921185	-0.3796060679842202	0.31748212451170976	-0.8760607025338395
37685	753	799900000	0.003623000175895376	0.0013024590088288235	-0.9419727110926344	0.33566737855658296	0.0012537856830563802	-4.681075284763602e-06	-0.16408646850075825	-0.047239346352346584	-0.015265483670788832	9.79981837602332	-0.38064595799742934	0.3162128625945452	-0.880353589724618
37686	753	819900000	0.0036249049020432482	0.0012969620953044265	-0.9424867630643519	0.3342213030347631	0.0011725965062821064	-2.9890804330786067e-06	-0.15346923638408974	-0.028260047323786744	-0.014465695775984257	9.800021801858204	-0.38161476302297026	0.3150226467175941	-0.885652730482125
37687	753	839900000	0.00362660824951041	0.0012920508296261316	-0.9429456584402086	0.33292441115968036	0.0010494380835030866	-1.7499673147272225e-06	-0.1375656457676726	-0.009695370588830993	-0.013260291742355946	9.800144860156513	-0.3824800487714379	0.3139532751412431	-0.8744041372647788
37688	753	859900000	0.003628050731151253	0.0012878944120529655	-0.9433327533294773	0.3318260011989768	0.0008883164162380144	-8.231092097600192e-07	-0.1164597567572842	0.00844580665127874	-0.011807842972655774	9.800337049267423	-0.3832102653715178	0.31304611485565137	-0.8815602668322655
37689	753	879900000	0.0036320333408997388	0.0012835706680757557	-0.9436693481169163	0.33086752969239086	0.000931114617528561	0.00023354230797157527	-0.10158278263879927	-0.06789533838354614	-0.009720858763509439	9.800704904845905	-0.3838414005739926	0.3122507394087252	-0.8680967688633
37690	753	899900000	0.0036340366939954676	0.0012799539247289875	-0.944005200316922	0.32990807396889427	0.0007991720912252874	7.055429306962142e-05	-0.10165160123948296	-0.0742044775580155	-0.009925177896050222	9.798887892878769	-0.3844741822804139	0.31145584434813434	-0.8650792725006956
37691	753	919900000	0.0036356586669193855	0.0012763404041639063	-0.9443401431560267	0.32894809159696564	0.0007863608090180578	3.5055996242058835e-05	-0.10167136657642079	-0.07510704346657485	-0.009935768190753366	9.799295335137279	-0.38510608662788703	0.3106597341806722	-0.8830661977578752
37692	753	939900000	0.003637203373427659	0.001272750718025281	-0.944674046788918	0.3279879512736396	0.0007814931511655317	2.8941426175898418e-05	-0.10165211658225809	-0.0755422442301433	-0.00994172002515306	9.799528016709695	-0.3857363578937079	0.3098625736497782	-0.8883564712802541
37693	753	959900000	0.003638715149350337	0.0012691899890068736	-0.9450068635544161	0.3270277920053262	0.0007775461224240706	2.7178044566434127e-05	-0.10161827303115116	-0.07569349558840788	-0.00993855028702872	9.79963049585302	-0.3863648287107533	0.3090644634093361	-0.8654599633771448
37694	753	979900000	0.0036402070890110476	0.0012656731378781173	-0.9453385222720625	0.32606782311710947	0.0007725346776083444	2.71356508933257e-05	-0.10156242904552366	-0.0757499072165733	-0.009938635042089874	9.799664470372939	-0.3869913326990113	0.30826559678178267	-0.8654152688684683
37695	753	999900000	0.003641705548901693	0.0012622137804749714	-0.9456689780644109	0.3251081800319402	0.0007670413268891096	3.0023372939162168e-05	-0.10149242618973295	-0.07583686941809195	-0.009935115826177914	9.799663055251806	-0.38761573212390693	0.30746609735476077	-0.8671228931502787
37696	754	19900000	0.0036432419234362933	0.0012588458106719677	-0.9459981691893977	0.32414904902809744	0.0007592856065694374	3.697584902227165e-05	-0.10140291332506741	-0.07595972229834205	-0.009918878665738205	9.799643008701075	-0.38823783767316816	0.3066661620326525	-0.868137449219822
37697	754	39900000	0.0036448605264711937	0.0012556333120917577	-0.9463259744632506	0.3231907926177778	0.000746750390964264	5.018903849330361e-05	-0.10127530092070196	-0.07623151193736746	-0.009908646240251956	9.799614131283514	-0.38885730952851205	0.30586617718223386	-0.8565548077697122
37698	754	59900000	0.0036466445541577567	0.0012527062815829379	-0.9466520885981529	0.3222343182580385	0.0007242202962797654	7.546230880350835e-05	-0.10105208795376462	-0.07693926143051613	-0.009919097710281762	9.799552906653393	-0.3894733589366937	0.30506706990949795	-0.8757515214227248
37699	754	79900000	0.003648771561467142	0.0012503522995427454	-0.9469755680769799	0.3212824249013639	0.0006790239409883652	0.00012678304351122394	-0.10053369443329276	-0.07927001604326793	-0.009984153207982589	9.799454146615513	-0.3900837461507205	0.30427154995956635	-0.8604162978401986
37700	754	99900000	0.003650532580340194	0.0012469686898208734	-0.9472903095116745	0.3203532240921616	0.0007553960526624133	5.939563788849252e-05	-0.09810369647549558	-0.0985965533386641	-0.009294036318518582	9.800710273399854	-0.39067895294197963	0.30349246301534594	-0.8689002895006631
37701	754	119900000	0.0036520699742922233	0.001243931934752536	-0.9475742824587152	0.3195122755718402	0.0006793213996275799	4.9550816035421255e-05	-0.08875811470475409	-0.13428377667790023	-0.009001893060892156	9.799431822981783	-0.3912162137492673	0.3027866599929146	-0.8751467427942524
37702	754	139900000	0.0036469281327369692	0.001231748465298043	-0.9478060817392177	0.3188241115867251	0.0012703427500638774	-0.0008755563675784274	-0.07261111749765803	-0.14920106142906292	-0.0075020917248386845	9.803844588563303	-0.39167071686036903	0.3021961167774144	-0.845600145009035
37703	754	159900000	0.003646793077616994	0.001229457653366328	-0.9479944652936034	0.3182635434774502	0.00044045796712134324	-8.549145688122151e-05	-0.059136292897318324	-0.11791857480516504	-0.005439500834003103	9.79458241516246	-0.39202933942045276	0.3017250098332091	-0.8490637434729598
37704	754	179900000	0.0036479719216623322	0.0012275835160863065	-0.9481657771074617	0.3177528040187421	0.00042250367991867455	5.242618835656955e-05	-0.05386922270997996	-0.08457710007387559	-0.005022835393818124	9.799437875567264	-0.39235327047388385	0.30129512529582064	-0.8736415849196689
37705	754	199900000	0.0036483633972390407	0.0012254674243209057	-0.9483409075706574	0.31722974435285184	0.00042538927149987513	-2.9798195128077787e-05	-0.0551587298239087	-0.05545013010628176	-0.005111261219983041	9.800402714184896	-0.3926859266446874	0.30085471374264394	-0.8465535948938477
37706	754	219900000	0.0036487552861625876	0.0012230572615331674	-0.9485397384369605	0.3166347348629636	0.0004824446699975868	-3.8917356106569004e-05	-0.06273376724820277	-0.028042033123895478	-0.005732656948419874	9.800008617497905	-0.3930637636312925	0.30035339771032354	-0.8631147232452516
37707	754	239900000	0.003649486243756908	0.0012202003815017766	-0.948781777924043	0.3159087372018661	0.0005886327331784788	-2.0645129277496443e-05	-0.07652644969554649	-0.0005429134808228528	-0.006879008597425341	9.800208764938393	-0.39352335366947583	0.29974121907433005	-0.8568781821650373
37708	754	259900000	0.0036530636102197686	0.0012197125823455897	-0.9490832604376649	0.3150017971131085	0.0005270671529968167	0.0003246432947281367	-0.09557231900688556	0.0007412937576955006	-0.009217312638527328	9.795628134658728	-0.39408992212507943	0.298979317302401	-0.8600179011160396
37709	754	279900000	0.003653891611631964	0.0012157198199748136	-0.9493996918497024	0.3140468057743942	0.0007924886680339085	-4.630142449601821e-05	-0.10060273307814015	-0.08181174612193534	-0.009757056005849639	9.802650255036657	-0.39469147767776414	0.2981720065874859	-0.8665923413607307
37710	754	299900000	0.003655666467754826	0.0012126121555301374	-0.9497152940353265	0.3130910825140671	0.0007383597845208069	7.17811416382696e-05	-0.10064638842840656	-0.07721308601850704	-0.00978333168334098	9.80080297552319	-0.39528961576295973	0.29736408486144467	-0.8899425308954871
37711	754	319900000	0.0036573010956732926	0.001209271631727767	-0.950029598666349	0.3121360656327179	0.0007556688048088262	5.156151864083023e-05	-0.10053860907997417	-0.07554101076553932	-0.0097713653552867	9.799889751730309	-0.3958858382299721	0.2965555128424942	-0.8862323663895233
37712	754	339900000	0.003658729515075454	0.0012057601200037456	-0.9503427103708825	0.3111814465642088	0.0007651869041606818	2.7022128149819617e-05	-0.1004635425245948	-0.07536008893975055	-0.00977077166958981	9.799717306027498	-0.3964804159876739	0.29574617289559174	-0.8676761696658303
37713	754	359900000	0.0036600583373429725	0.0012021703912890383	-0.9506547012684913	0.3102270099708165	0.0007693190161782777	1.5511088304619023e-05	-0.10041130706097967	-0.07531684946732498	-0.009768613046701057	9.799725941033746	-0.3970732582448966	0.29493598264413545	-0.8508506136378501
37714	754	379900000	0.0036613480197765533	0.001198540120546117	-0.9509656786869924	0.3092724300542247	0.0007718895597290572	1.0920686753959722e-05	-0.10039348113213195	-0.07524079157648896	-0.009763074645514628	9.799737229555749	-0.3976644471440208	0.29412470040732874	-0.8704042012683385
37715	754	399900000	0.003662622177007344	0.0011948942066731323	-0.9512756649538004	0.3083176392834642	0.0007728554236563373	9.348660950913495e-06	-0.10038287517724065	-0.07522758032140342	-0.009762722821651653	9.799742046108157	-0.3982539709924425	0.29331230036602624	-0.8721631170405931
37716	754	419900000	0.0036638877168979965	0.0011912384159521888	-0.9515846855034883	0.3073625598427074	0.0007735196324664426	8.612592290970277e-06	-0.10038055830757697	-0.07525288077860917	-0.009757335463590948	9.799739547313067	-0.3988418618609208	0.2924987252525992	-0.8805292183531852
37717	754	439900000	0.0036651450528522853	0.001187577106224344	-0.9518927642941981	0.3064071175033452	0.0007738134304949561	8.050564358378817e-06	-0.10038614399365234	-0.07523020124758736	-0.009764118870910844	9.799736853287351	-0.39942816055255637	0.29168392171384117	-0.8835695080466407
37718	754	459900000	0.0036664066165807223	0.0011839087484662115	-0.95219990769977	0.30545129169664154	0.0007746433317287038	8.62541847756565e-06	-0.10039398202681213	-0.07522303613850051	-0.009762242283079831	9.799713009281982	-0.40001285775389295	0.29086786549984023	-0.8637326440191639
37719	754	479900000	0.0036676677189474635	0.0011802304683862725	-0.9525061237453576	0.3044950566054208	0.0007756143125023994	8.66687245924153e-06	-0.10040462420679497	-0.07522013944256509	-0.009759722290165161	9.799726102689366	-0.40059597623338683	0.2900505347174901	-0.8596822140539342
37720	754	499900000	0.003668923430789205	0.0011765398459102306	-0.9528114171472714	0.30353839643224484	0.0007766728072024668	8.166166215386343e-06	-0.10041701557008444	-0.07521320269867628	-0.009758481378944871	9.7997221502053	-0.40117753262816946	0.2892319167259283	-0.8670247674436088
37721	754	519900000	0.003670184943350126	0.0011728474886328415	-0.9531157942794299	0.3025812896831879	0.0007770702179447205	9.054921421032539e-06	-0.10043175223906438	-0.07521304129559704	-0.009762468212998776	9.79971226887492	-0.4017575133374075	0.28841200704829284	-0.8657847493461579
37722	754	539900000	0.003671451820566434	0.0011691532017016873	-0.9534192601534754	0.30162371904530255	0.0007774798397924464	9.896703292262226e-06	-0.10044839190239602	-0.07521486557768943	-0.00976629726727895	9.799703035528283	-0.40233592704845084	0.2875907929844357	-0.8717427649720983
37723	754	559900000	0.0036727232968855094	0.0011654556638692327	-0.9537218220669279	0.30066565971194525	0.0007780022422557236	1.0626156600690351e-05	-0.10046771774505833	-0.0752033143663495	-0.00976639587599337	9.79969475174835	-0.40291278795401886	0.2867682536923253	-0.8840270267741978
37724	754	579900000	0.003674002535859256	0.0011617550441065736	-0.9540235228081761	0.2997069734912112	0.0007786594417993439	1.166318069999856e-05	-0.10050161084944242	-0.07514233915054744	-0.009767198017284984	9.799689820441163	-0.4034881707195423	0.2859442719572714	-0.8669432425402703
37725	754	599900000	0.0036752702277534736	0.001158058701585477	-0.9543244016333469	0.2987475317654546	0.0007780873952634123	1.1079497321507249e-05	-0.10054905736363072	-0.07521372506411628	-0.009774752306919886	9.799702494724606	-0.4040621768134548	0.28511876178602136	-0.8839327499677909
37726	754	619900000	0.00367654535552869	0.001154361904516617	-0.954624487877468	0.29778723546774805	0.0007785752120012455	1.2165801675646394e-05	-0.10060693209398494	-0.07521392800881727	-0.009781585239530785	9.79968699710729	-0.404634831843423	0.2842916220754075	-0.8711293837968119
37727	754	639900000	0.003677825210486711	0.0011506662523007782	-0.9549238042683645	0.29682600561697986	0.0007788610470609719	1.3041968369054595e-05	-0.10067312598510765	-0.07527141439902357	-0.009785347053767622	9.79967836190759	-0.4052061814382085	0.2834627903110449	-0.8631304699636148
37728	754	659900000	0.0036791131167661297	0.0011469704523531577	-0.9552223825409576	0.295863732955278	0.0007794127338124846	1.4197883099004262e-05	-0.10075079629547619	-0.07529394273402454	-0.00979438900439684	9.799670407210327	-0.4057762800030603	0.2826321698609605	-0.8564269587557095
37729	754	679900000	0.003680416097788707	0.0011432720966722098	-0.9555202313751038	0.2949003813139755	0.0007804161749847357	1.5954366157422985e-05	-0.10083227878580091	-0.07532008045375577	-0.009800718128893321	9.799665966157507	-0.40634513239182474	0.2817997226569896	-0.8768871708415462
37730	754	699900000	0.003681738548151306	0.0011395697544921892	-0.9558173636782097	0.2939359002797633	0.0007817049893692358	1.808997291452975e-05	-0.10091906035001826	-0.07534841074164406	-0.00980896242478867	9.799654291194736	-0.4069127553903027	0.28096540128450664	-0.8592476524990863
37731	754	719900000	0.003683088686254947	0.0011358602244981415	-0.9561137913069017	0.292970242092985	0.0007835589502298406	2.0918727554031997e-05	-0.10101085599855557	-0.07538134311813376	-0.00981843906137271	9.799642825033033	-0.4074791583524259	0.280129155586425	-0.8834781594663181
37732	754	739900000	0.003684478010569456	0.0011321333381146008	-0.9564095058342691	0.29200342471577934	0.0007867124004381376	2.455119465104533e-05	-0.10110078524411172	-0.07551042062574319	-0.009858087062537048	9.799637065786074	-0.408044309900079	0.2792909786093075	-0.8735858491590413
37733	754	759900000	0.0036859246769252955	0.0011283833600897108	-0.9567045045129374	0.2910354475917388	0.0007909415777060104	2.97562107364272e-05	-0.10119078655016671	-0.0755682047711656	-0.009832808810015485	9.799625116615958	-0.40860817615828754	0.27845085159478944	-0.8524437259086857
37734	754	779900000	0.0036874652925152013	0.0011245987505182774	-0.9569988368498754	0.29006613753651517	0.0007974051700296447	3.81324912387472e-05	-0.10129889246387597	-0.07568222441888744	-0.009840010043869373	9.799612769134031	-0.40917079550942936	0.2776085881744448	-0.8732928545164755
37735	754	799900000	0.0036891658532476625	0.0011207527969337688	-0.9572926064010298	0.2890951395274551	0.0008084743905516213	5.205719547649752e-05	-0.10144406441213638	-0.0759058120723656	-0.009853412515694727	9.799586498727056	-0.40973226862204176	0.2767638047363292	-0.8794398140756913
37736	754	819900000	0.0036911630679173388	0.0011167898486044478	-0.9575860980494159	0.28812148985824454	0.0008291974317751722	7.747310926838847e-05	-0.10168979556697937	-0.07650678185136049	-0.00987233856346376	9.799535152879889	-0.4102929404702108	0.2759155075534571	-0.8736962559259601
37737	754	839900000	0.003693106815847285	0.0011128398636019317	-0.9578804194160777	0.2871414714888184	0.0008288590446908962	7.313169672588272e-05	-0.10232357047551736	-0.08022884816396372	-0.010075384338375966	9.800579396196717	-0.4108554480248855	0.27506086976974636	-0.8716838189693311
37738	754	859900000	0.0036947293116400513	0.0011090163154931594	-0.9581857274692832	0.28612100714957334	0.0008236832032989765	4.64335951947518e-05	-0.10651336881286731	-0.10153624242034405	-0.010043983196431294	9.799336938987489	-0.4114396460687363	0.2741706959869671	-0.8998009239355
37739	754	879900000	0.0036964208476305735	0.001104826684338685	-0.9585206351455111	0.2849970312672765	0.0009022635539418739	4.3117864055760034e-05	-0.11727846833165965	-0.1253170291180856	-0.011186342318204319	9.799349453733932	-0.4120808320799492	0.2731891979293193	-0.8745611802125015
37740	754	899900000	0.003688427491529039	0.0011032449892164125	-0.958900066163057	0.28371789063366887	0.0004385453574073689	-0.0008101885604511639	-0.1334222786764703	-0.13480011642148954	-0.012292273553518123	9.799609364571404	-0.41282242913554495	0.2720809686458562	-0.8698156384341792
37741	754	919900000	0.0036916304663008005	0.0010979779445206487	-0.9593160640763561	0.2823080861647118	0.0011618224111227897	0.0001597960061338477	-0.14698652175370092	-0.11088850680991802	-0.01402169007980187	9.798484066516085	-0.4136176812151493	0.27084601442706646	-0.8767626374166118
37742	754	939900000	0.0036930037137120598	0.001092459084882257	-0.9597481338274617	0.28083569550793086	0.0011591939367712298	-2.1902987658540647e-05	-0.15344435148950883	-0.08844311825187443	-0.01439734162175295	9.800212181606827	-0.4144472778466594	0.2695552422866949	-0.8663484388150078
37743	754	959900000	0.0036946193852388327	0.0010868958394471264	-0.9601807266339717	0.2793530752393654	0.0011740969428513208	1.0414976641400824e-06	-0.15444078414833146	-0.07011093999080889	-0.014487921903470978	9.799537758818207	-0.4152778562786893	0.26825339579759866	-0.866874470413421
37744	754	979900000	0.003696238296174633	0.001081560720130707	-0.9605984220951412	0.2779133669278821	0.0011348096436094898	8.56523487663636e-06	-0.1499043774856052	-0.05041592029412874	-0.014147405275579238	9.799854883887352	-0.41608005739308496	0.2669874243541889	-0.857281778446745
37745	754	999900000	0.0036977645047437313	0.0010766547141094279	-0.9609863310367986	0.276569049086709	0.0010525325000667687	1.22786418591223e-05	-0.13991353491849143	-0.03134711752537022	-0.013352949236075044	9.79995964558478	-0.4168252914193943	0.2658037779337633	-0.8607223963143665
37746	755	19900000	0.0036992078871039063	0.001072410262517871	-0.9613300137862633	0.2753720581158151	0.0009274275623693134	2.3107493745061395e-05	-0.12453270455471634	-0.012590412096126796	-0.012187098666624534	9.800086619489043	-0.4174856013382713	0.2647486639926011	-0.8586255516513458
37747	755	39900000	0.0037046741564347604	0.0010678288353643246	-0.9616190853990881	0.27436083854514387	0.000996023787719759	0.0004008398741258712	-0.10516953530188579	-0.020326193783823342	-0.010302297333174226	9.797876589048563	-0.4180345603498265	0.2638526348212111	-0.8588919739556871
37748	755	59900000	0.003705665912371108	0.0010650754263493902	-0.9618957159586796	0.27338940227232916	0.0006814079750610869	2.1076544492920996e-05	-0.10100371647445289	-0.08413601598927528	-0.010082647199814332	9.799755745638022	-0.4185663305952825	0.2629957899733392	-0.8715690520908757
37749	755	79900000	0.0037072663054690696	0.0010616665672453893	-0.9621714412178065	0.27241741270610725	0.0007612035577268794	6.209619253309408e-05	-0.10103187988338089	-0.07653127501147267	-0.009932843655877016	9.800535630520582	-0.4190958019736271	0.26213624997388096	-0.841968955985622
37750	755	99900000	0.003709126122876763	0.001058709053007324	-0.9624401680844905	0.27146647007695723	0.000716297944692435	9.971269196330544e-05	-0.09881629398335995	-0.0951388731523842	-0.00939050132594389	9.800827994629604	-0.4196113039566482	0.26129501715469927	-0.8907242095482508
37751	755	119900000	0.003710682158452171	0.001055403947368541	-0.9626861518184794	0.2705928492354417	0.0007104173978671871	6.128914642482703e-05	-0.09075703438008047	-0.12845081681302306	-0.00913842624899519	9.799612451911642	-0.4200838228966958	0.26052058345549256	-0.8413649741743455
37752	755	139900000	0.003709034262496512	0.00104811303035509	-0.9628890492070497	0.2698700121189076	0.0009469314365879154	-0.000354927953096618	-0.07507426199263013	-0.1564403138947717	-0.007333736583021527	9.803970542489255	-0.4204806753548717	0.2598730726318792	-0.8671765260453362
37753	755	159900000	0.003706275062445164	0.0010413030513348666	-0.9630475240794858	0.2693040021564648	0.0008078079262220806	-0.0004489159209036632	-0.05877500778251124	-0.13151439885723792	-0.005965142569896123	9.795315632879188	-0.42079366210341324	0.25936456915466355	-0.8915986616593772
37754	755	179900000	0.0037058254415535258	0.0010393582546821326	-0.96318342563035	0.26881754999106633	0.0003696287281797749	-9.538922536592136e-05	-0.05050686666870213	-0.09722136779144161	-0.004732331007419845	9.799337143243653	-0.42105709637941646	0.25893295039269215	-0.872977304347619
37755	755	199900000	0.0037059883218110664	0.0010374923492287495	-0.96331442997409	0.26834771894666487	0.0003718266708886485	-3.418610372628448e-05	-0.04877426768057847	-0.06920352480786762	-0.004518912398161462	9.799376301206545	-0.42131007250710956	0.25851562743347023	-0.8595927540769178
37756	755	219900000	0.003706342621044552	0.0010354469705694859	-0.9634576800734765	0.2678329508880141	0.00041217636593464147	-2.043864160688121e-05	-0.05343164139494418	-0.04098270830008868	-0.004955970031327435	9.799901424521268	-0.42158644169170545	0.2580580879117513	-0.901165199966371
37757	755	239900000	0.0037067852643871096	0.0010330071793609478	-0.963629847399883	0.26721285492889246	0.0004945748612197284	-2.2302298395453604e-05	-0.06435388408634324	-0.013305165694954164	-0.005735624294117916	9.800249884553073	-0.42191861542364134	0.25750666094482544	-0.8721242334566693
37758	755	259900000	0.0037073765706823764	0.0010299574792328049	-0.9638470781243057	0.26642823524880543	0.000622960496652342	-2.3982859499205974e-05	-0.08141179591354777	0.01375787440775779	-0.007412255643848125	9.800448509167065	-0.4223377456947889	0.25680850576861425	-0.8854227223303778
37759	755	279900000	0.00371388249543963	0.0010306089663484873	-0.9641120423116082	0.26546772834321797	0.000493929156087602	0.0006451251449659407	-0.09963715947538664	-0.03528305290376678	-0.009780751982206175	9.799601523631548	-0.4228374354709113	0.25595780946521973	-0.863165166807319
37760	755	299900000	0.00371359141476186	0.0010262506155278598	-0.9643786377809579	0.264497635226144	0.000800223486259516	-0.00014279537017285418	-0.10060352333477252	-0.07409939945904528	-0.009753440237533625	9.79866910789227	-0.4233540530245023	0.25509259790629674	-0.8443153474874876
37761	755	319900000	0.0037141257055500914	0.0010223041673485726	-0.9646443630171311	0.26352687351332194	0.0007824903339358272	-5.191178264537917e-05	-0.10064505208328582	-0.07641029654834632	-0.0097851536848604	9.800089191272756	-0.4238675600244963	0.25422630642567673	-0.8660403834986832
37762	755	339900000	0.0037150721802916738	0.0010186012169534134	-0.9649090930680894	0.26255590415142743	0.0007698389955372814	-5.343008749185152e-06	-0.10063890534064239	-0.07607688207125035	-0.009780958405740494	9.800120984273672	-0.4243784816457675	0.2533592559497496	-0.8809566521084137
37763	755	359900000	0.0037161293902597046	0.0010149330778891459	-0.9651727661188232	0.2615849610274676	0.0007692700234808962	6.645938627166238e-06	-0.10060862310352058	-0.0757214958724651	-0.009790316914851582	9.79995453906525	-0.4248872956949812	0.25249144623194675	-0.8895718437921613
37764	755	379900000	0.003717194070826524	0.0010112378668097552	-0.9654354414722409	0.26061382967048385	0.0007720470507486252	7.048678964866879e-06	-0.10060068173127566	-0.07539684073370906	-0.00978602967390189	9.799838473099486	-0.4253943155156149	0.2516226336777377	-0.8625693369925951
37765	755	399900000	0.0037182503631727143	0.0010075338625016713	-0.9656971427453063	0.2596424233119548	0.0007726810924294825	6.399580375200032e-06	-0.1006018430569629	-0.0753026398739059	-0.009783056983456788	9.799780893051402	-0.4258996033465816	0.25075278176381166	-0.8709388458137906
37766	755	419900000	0.0037192969147982736	0.001003828558524684	-0.9659578645974554	0.2586707617435896	0.000772549904069254	5.815063223039609e-06	-0.10060105917465227	-0.07525308243979492	-0.009780454044647384	9.799758984228701	-0.42640314622866693	0.24988192384855842	-0.8606208151594552
37767	755	439900000	0.0037203427984545605	0.0010001153962823234	-0.9662176115584423	0.2576988279619356	0.000773295082919319	5.937186393687302e-06	-0.10060213338762662	-0.07522672128220079	-0.009775959926764874	9.79975156314898	-0.4269049391212299	0.24901003237147157	-0.8566280708667439
37768	755	459900000	0.003721387263706184	0.000996397779440011	-0.966476388169093	0.2567266047372639	0.000773699578716084	6.075294372582937e-06	-0.10060509256078198	-0.07520597140738844	-0.009784559154144177	9.799744856281265	-0.4274049889935406	0.24813710064512917	-0.8802141028071416
37769	755	479900000	0.003722430619106248	0.000992676728170589	-0.9667341980125802	0.2557540781613712	0.0007740195754142802	6.2698563403897295e-06	-0.10060959008087422	-0.07518959296952007	-0.009787144050645607	9.799739639873684	-0.4279033002803738	0.2472631204245218	-0.879710488337714
37770	755	499900000	0.0037234644942822103	0.000988937912237363	-0.9669910422509043	0.2547812434628491	0.000775513329160499	5.289058409094631e-06	-0.10061467595285087	-0.075180638034722	-0.009781229888579436	9.799764878285915	-0.42839989403268225	0.2463880696514545	-0.8560549706434968
37771	755	519900000	0.003724497965003009	0.0009851983687014134	-0.9672469241433067	0.2538080874093564	0.0007755978682928981	5.621516158921966e-06	-0.10062123169174833	-0.07516924208304457	-0.00978875105039481	9.799753311050182	-0.4288947523305015	0.24551196359982347	-0.8609658837083833
37772	755	539900000	0.0037255327949084847	0.000981458123010887	-0.9675018450950232	0.2528346038086415	0.0007757276044102528	6.125333774756124e-06	-0.10062852375362125	-0.07515998254210937	-0.00979565992574007	9.79974447648925	-0.4293878734462082	0.2446347985286522	-0.8799173311786767
37773	755	559900000	0.003726569737882964	0.0009777175349520448	-0.9677558063042374	0.2518607871639526	0.0007758440363317621	6.711359522800529e-06	-0.10063647988616145	-0.07514994904333352	-0.009799515308802383	9.799737245589288	-0.4298792568042459	0.24375657231624115	-0.8689236982357935
37774	755	579900000	0.0037276076561063728	0.0009739745606477389	-0.9680088287951562	0.250886555417678	0.0007761624395974218	7.1360448377719095e-06	-0.10065300795007093	-0.07507505492005974	-0.009802708408167974	9.7997316121341	-0.4303689444341956	0.2428772110096819	-0.8842243940888332
37775	755	599900000	0.003728646688299619	0.0009702330454235741	-0.9682609369150034	0.24991181221821315	0.0007761507398049509	7.671140452989872e-06	-0.1006795771932401	-0.07507882830994256	-0.009802047738957282	9.799723133385257	-0.43085698015857576	0.24199663691742243	-0.892925573572595
37776	755	619900000	0.0037296904123522794	0.0009664938150747728	-0.9685121500773429	0.24893647874848707	0.000776180018645952	8.573504766081483e-06	-0.10071436512621582	-0.07509233319403716	-0.009803819525513735	9.79970822660177	-0.4313433938498129	0.24111478124280378	-0.8838210061441463
37777	755	639900000	0.0037307376940696442	0.0009627546842161848	-0.9687624737283602	0.24796052951101777	0.0007764026379053998	9.311819472617701e-06	-0.1007518595153705	-0.07509202362050064	-0.009810875055545946	9.799694252330244	-0.43182819755468027	0.2402316198411151	-0.8686840628658428
37778	755	659900000	0.0037317899750636207	0.0009590180803954501	-0.9690119092371612	0.24698395450809224	0.0007764297405820378	1.0250379779398229e-05	-0.10079045936057132	-0.07509477808635048	-0.0098150982846612	9.799687687800933	-0.43231138913366124	0.2393471490782696	-0.897495072208782
37779	755	679900000	0.0037328482078278565	0.0009552838521999861	-0.9692604576478755	0.24600674486129434	0.0007764983005960999	1.1277697585540452e-05	-0.1008300475685312	-0.07509975944278423	-0.009818464375056164	9.799680583314569	-0.4327929677537237	0.23846136218807104	-0.9000081888797291
37780	755	699900000	0.0037339133665710744	0.000951552346965188	-0.9695081196347951	0.2450288929928588	0.0007765598114866976	1.2408231145065736e-05	-0.10087048930830207	-0.07510838368451264	-0.00982185514383886	9.799668016029592	-0.43327293162174746	0.2375742543925368	-0.8842968557161218
37781	755	719900000	0.0037349855187281643	0.0009478223071129078	-0.9697548960667263	0.2440503904333326	0.0007767477978254013	1.3514729820388402e-05	-0.1009118756048543	-0.07512058779734893	-0.00982533655868688	9.7996548380181	-0.4337512815271253	0.23668581778375508	-0.8560547050401988
37782	755	739900000	0.0037360651326560864	0.0009440932446236658	-0.9700007790025595	0.24307126370613555	0.000776983560691622	1.4655070981913033e-05	-0.10095059844170727	-0.07519392437770478	-0.009827709663728024	9.799649204384885	-0.43422800016933405	0.2357960771320863	-0.8618273660210938
37783	755	759900000	0.003737151209874488	0.0009403630942515349	-0.9702457359411338	0.24209163824083896	0.0007773450983504215	1.5648611654727328e-05	-0.10097646670913211	-0.07523497995579917	-0.009824974354970165	9.799637740821126	-0.4347030256964579	0.234905144565359	-0.8439370136006097
37784	755	779900000	0.0037382327235260327	0.0009366397541477231	-0.9704897656364398	0.24111151593609928	0.0007766723367024619	1.576395022736842e-05	-0.1010022275524495	-0.07528187882533882	-0.009832918684021879	9.799653826758949	-0.4351763695676974	0.23401304191904695	-0.8706693604228603
37785	755	799900000	0.003739314860361244	0.000932923108652497	-0.9707328968478437	0.24013077719493212	0.0007761839401943434	1.6379456472497056e-05	-0.10104039105932865	-0.07533469703118646	-0.009841789317321235	9.799640386003354	-0.4356480776307339	0.23311966084507502	-0.8898740093648551
37786	755	819900000	0.00374040818512542	0.0009292111468054061	-0.9709751373967038	0.23914938526098153	0.0007761590972049898	1.7971959255752326e-05	-0.10108241181807535	-0.07537106056672144	-0.009853860768984382	9.79962456575807	-0.43611814686005423	0.23222496224568878	-0.8666216180765683
37787	755	839900000	0.0037414975442546876	0.000925493693228217	-0.9712165100012966	0.2381672424126614	0.0007767977152543466	1.7849993947262587e-05	-0.10113456525712941	-0.07542998596851402	-0.009851815876906169	9.799652780151652	-0.4365866497714025	0.2313288486058641	-0.8646315395116619
37788	755	859900000	0.0037425973709500062	0.0009217780683364954	-0.9714570200903833	0.23718431948007082	0.000777081456613752	1.9305081063189966e-05	-0.1011897857676492	-0.0754710021656273	-0.00985835420144731	9.79964000207228	-0.43705356835493203	0.23043130150991925	-0.8768781583102084
37789	755	879900000	0.0037437151637862193	0.0009180662980234768	-0.9716966616820214	0.23620063384135978	0.0007773385238089682	2.153718758642854e-05	-0.10124327981494503	-0.07557419215267014	-0.009868087432107972	9.799639313669456	-0.43751887629254654	0.22953233872261136	-0.8811152000485682
37790	755	899900000	0.0037448446771018245	0.0009143454261546178	-0.9719353831470565	0.23521639206817768	0.0007786234847304167	2.28566095765123e-05	-0.10127558127761989	-0.07568439802370132	-0.009867487431841725	9.799630254011745	-0.43798248773930865	0.22863213026426008	-0.8662930183696207
37791	755	919900000	0.003745999634087125	0.0009106179585872747	-0.9721731491724258	0.23423173629942487	0.0007799306960221058	2.557007950401524e-05	-0.10129334070453024	-0.07582646540795399	-0.009873330551835499	9.799622644008686	-0.4384443085352643	0.22773080613113045	-0.8742155325843344
37792	755	939900000	0.003747194477812863	0.0009068816027181383	-0.9724099179022357	0.23324683848805164	0.0007817289207065988	2.9635197480229103e-05	-0.10129350463173747	-0.07592435236149939	-0.009869168090871256	9.799611736844987	-0.4389042324455614	0.22682851556543124	-0.8598746436702457
37793	755	959900000	0.003748455914982957	0.0009031339199555798	-0.9726456905336659	0.23226169316885747	0.0007843860421650248	3.6242318439125644e-05	-0.10129432856841188	-0.07603363905090929	-0.009900215760797849	9.799602898453507	-0.4393622162747854	0.2259252417181673	-0.8560619901494293
37794	755	979900000	0.0037498269615258645	0.000899367606126341	-0.9728804970166086	0.23127617356827815	0.0007887970332339675	4.68666594918003e-05	-0.10130827610428739	-0.07617607454372657	-0.009877604915542014	9.799587390107625	-0.4398182471820822	0.22502084263839905	-0.8706001717191135
37795	755	999900000	0.0037513891502573412	0.0008955656801305616	-0.9731144204933837	0.23028992524507466	0.0007968761798495607	6.503553976366268e-05	-0.10135871973554358	-0.07649238320196029	-0.00987706100699244	9.799560868263999	-0.44027235472138476	0.22411493701134352	-0.8612722777065916
37796	756	19900000	0.00375330581755644	0.0008916796036769556	-0.9733477166919247	0.2293018534891095	0.0008138561338093202	9.799108266577377e-05	-0.10152165181855485	-0.07733471106648918	-0.009881578626745297	9.799497585916177	-0.44072477890907985	0.22320638177459473	-0.8797876336096958
37797	756	39900000	0.003755472636165866	0.0008878051421737325	-0.9735813589656238	0.22830778721269634	0.0008207423994742701	0.00012301046739436654	-0.10211304500123446	-0.08054731532547506	-0.010079500180924333	9.800482373880579	-0.4411775515617624	0.2222915722301343	-0.8631209739550502
37798	756	59900000	0.003757040807924656	0.000884305136295336	-0.9738224787165939	0.2272771053033337	0.0007850332831925831	7.371904046447872e-05	-0.10584878720663465	-0.10167729813497292	-0.010049931752422539	9.799259598220821	-0.4416458521329257	0.22134346298399749	-0.8898087334927122
37799	756	79900000	0.003758307723403954	0.0008811222386134332	-0.9740855101305211	0.22614711517156114	0.0007865539025040092	5.21387439297249e-05	-0.11601779910126603	-0.12488968994315394	-0.01114551030422942	9.799913939679229	-0.4421573358611097	0.2203044159788916	-0.8733217149944809
37800	756	99900000	0.0037534578165534104	0.0008805300174961952	-0.9743762682438462	0.22489113834142993	0.00044566236614781675	-0.00048442437746106616	-0.12891853446035267	-0.1328488069252875	-0.012476684006476765	9.798047789964482	-0.44273230570444577	0.2191558788724008	-0.8821814698400202
37801	756	119900000	0.003754397085625579	0.0008759196594912128	-0.9746674869952971	0.22362564043853736	0.0009709879295791606	-1.003956030868529e-05	-0.1298545873736999	-0.12738939262209756	-0.014129208970187258	9.801437912673807	-0.44330013255488837	0.21798843972688206	-0.8830257956945778
37802	756	139900000	0.0037548331560221765	0.0008705040944933544	-0.9749231845620787	0.2225082642373697	0.0009794938273053788	-7.672941393133866e-05	-0.1146230323064293	-0.14359956465443258	-0.007929636842195897	9.80035986336603	-0.44380001192868784	0.21695458547962004	-0.8799574412220927
37803	756	159900000	0.0037501411385978444	0.0008597455915356035	-0.9751187983139628	0.22164955775658957	0.0012839285109910628	-0.0006955202781809992	-0.08806623351920274	-0.12064841677591107	-0.009046265725974466	9.79705919590697	-0.4441935257634901	0.21615023615657608	-0.8792169327769309
37804	756	179900000	0.0037489491913525025	0.0008569545979779782	-0.9752600669011349	0.22102717687373094	0.0004912827237990941	-0.00017756006947871139	-0.06381980202640124	-0.06754053812486088	-0.006704156152627842	9.800956500298184	-0.44447213935389496	0.21557454833504158	-0.8768786566965586
37805	756	199900000	0.0037528042046588725	0.0008540890245757213	-0.9753542254524741	0.2206112460518369	0.0005286735298620332	0.00031297092364029265	-0.042643828647765204	-0.05114614360154918	-0.0041063816915219535	9.796658197941996	-0.44465038986870914	0.21518619911764933	-0.8348430627855594
37806	756	219900000	0.003751725067841406	0.000852631634500369	-0.9754472431234457	0.22019962184613448	0.00028075923579605185	-0.0001371570727680168	-0.04219956179378688	-0.054172808578688884	-0.003933803623306914	9.800949599357713	-0.4448342297692776	0.21480595823991055	-0.8678243136748943
37807	756	239900000	0.003752068876830634	0.0008506424962623037	-0.9755576787785192	0.21970983993156668	0.0003947694205479908	-9.936062244784037e-06	-0.05020665730266875	-0.025996621882193392	-0.004429082455175366	9.800845817671998	-0.44504986859223006	0.21435231231959087	-0.843812937790483
37808	756	259900000	0.003752647653987383	0.0008481149716790059	-0.9756995000243385	0.21907917287783418	0.0005079854807384385	1.3657593282679398e-06	-0.06464016793614794	0.0017674165399803668	-0.005856500561084157	9.800525388369646	-0.445326582529614	0.21376793779815917	-0.8440299929902134
37809	756	279900000	0.003753305896747967	0.0008448812055295432	-0.9758856497310391	0.21824847655739066	0.000657457904109514	-6.023196204527902e-06	-0.08512789177922254	0.028580203056144192	-0.0074675040548676345	9.800627676367066	-0.4456899842045601	0.21299800110578054	-0.8805364958716166
37810	756	299900000	0.0037586252279434565	0.0008441672734099811	-0.9761051543761518	0.21726455697678732	0.0005736059524063148	0.0005042672318543207	-0.10080925504335586	-0.06418702863719306	-0.010198217754670185	9.802146694483694	-0.4461097423733426	0.21208900934003666	-0.8608900612653053
37811	756	319900000	0.003759846239821776	0.0008406931334008039	-0.9763235525007891	0.21628101540252528	0.0007537538572754276	4.464254815499101e-05	-0.10074762536397017	-0.07198024027033864	-0.00977078427823811	9.797695295541123	-0.4465353962281005	0.21117658266909672	-0.8811772043187917
37812	756	339900000	0.0037604028272737095	0.0008367896445355577	-0.9765408462441783	0.21529778161971808	0.0007810933933534311	-2.9123432050515335e-05	-0.1006935836836793	-0.07466048025475744	-0.009791054654452323	9.799077423118563	-0.44696026575001174	0.21026330649701186	-0.8666706257091966
37813	756	359900000	0.003761068996267365	0.0008329934013100804	-0.9767571443678241	0.21431435184889638	0.0007729700704850862	-1.5722576602820638e-05	-0.10069131840570475	-0.07555536078090963	-0.009793721105982891	9.799702664430233	-0.44738305281063095	0.2093493382639124	-0.8584257419812957
37814	756	379900000	0.003761869502766112	0.000829226132011569	-0.9769724406409956	0.21333075481477698	0.0007729985224925865	-1.5893737940826016e-06	-0.1006861845920874	-0.07549516066332831	-0.009799469839652415	9.799822304696862	-0.44780373126505607	0.2084345661477519	-0.8561959115630433
37815	756	399900000	0.003762724833304905	0.0008254684671315458	-0.9771867754709745	0.21234680677673942	0.0007732820803695885	4.362465161885607e-06	-0.1006999652300979	-0.07541562733044277	-0.009797876111726346	9.799808067652952	-0.4482225204589687	0.20751882034390717	-0.8711965771300141
37816	756	419900000	0.003763587005278569	0.0008217124476553838	-0.9774001496133423	0.2113625031487928	0.0007733210662677649	5.456774078873876e-06	-0.1007143131589107	-0.07535572217735925	-0.009807365392571318	9.799795962754967	-0.4486395047505215	0.206602103506501	-0.8665692869265492
37817	756	439900000	0.003764448055437809	0.000817956315484681	-0.9776125663760636	0.21037782664033453	0.0007733700379614682	5.735704243696221e-06	-0.1007305231582743	-0.07531621927463529	-0.009796525051360302	9.799782882253265	-0.4490547035004167	0.20568440212327382	-0.8762054126707843
37818	756	459900000	0.0037653051249094643	0.0008141960727914793	-0.9778240279408109	0.20939276478350366	0.0007737550745302132	5.651170059917277e-06	-0.10074809884981437	-0.07528802080107729	-0.00980304872086757	9.799772064617507	-0.44946812604140335	0.20476570139766542	-0.8845833192639906
37819	756	479900000	0.003766158413235977	0.0008104329382089449	-0.9780345364493948	0.20840730496188672	0.0007740309243428928	5.612143387150649e-06	-0.1007670557049172	-0.07526621249514312	-0.009809400292181681	9.79976439477729	-0.44987977455903094	0.2038459940930056	-0.8683039832185958
37820	756	499900000	0.0037670019953766317	0.0008066591298490662	-0.9782440926492371	0.20742144101776508	0.0007749475936730471	4.831801417472416e-06	-0.10078673026663036	-0.0752532121479037	-0.009806724943326935	9.799780040982634	-0.450289662123831	0.2029252658551537	-0.8449457336215525
37821	756	519900000	0.0037678394281372976	0.0008028781034784745	-0.9784526973534416	0.20643516612866455	0.0007756041899082622	4.4721027222028824e-06	-0.1008071924404818	-0.07523649023477297	-0.009805940823585067	9.799775016793815	-0.4506977818282535	0.20200351734452396	-0.8953767942808158
37822	756	539900000	0.003768675842782444	0.0007990964126505545	-0.9786603512333983	0.20544847395645657	0.0007757290725175611	4.75052630239127e-06	-0.10082839310902876	-0.07522534723232452	-0.009814587297834115	9.799767892323576	-0.4511041227462579	0.20108075438951933	-0.8870881305281932
37823	756	559900000	0.0037695110256261797	0.000795314678013868	-0.9788670545159017	0.2044613602726771	0.0007757909448348544	5.0210069876515444e-06	-0.10085011497378467	-0.07521380253274365	-0.009818656883287546	9.799761535774664	-0.45150868427866225	0.20015697662457876	-0.8813049907017988
37824	756	579900000	0.003770342385275728	0.0007915318611305705	-0.9790728144603533	0.20347378696110505	0.0007759169452308315	5.016786535364691e-06	-0.10087581873566419	-0.0751528678918656	-0.009822498958145034	9.799754807803453	-0.45191148422209737	0.19923215018125318	-0.8565031143165334
37825	756	599900000	0.0037711747579783424	0.000787749930408395	-0.9792776428726675	0.20248569297790928	0.0007759733738891769	5.526435277515336e-06	-0.1009078423021296	-0.0750784280521168	-0.009824334368716811	9.799748424162217	-0.4523125356439731	0.19830622225078842	-0.8656930263940303
37826	756	619900000	0.003772009197441571	0.0007839689539867981	-0.9794815359758339	0.2014970918443113	0.0007760393467218319	6.140824044438015e-06	-0.10093856794909505	-0.07506791424525217	-0.009824300735686103	9.79973823278642	-0.45271182819270367	0.19737920743945503	-0.8901664932021361
37827	756	639900000	0.0037728451369047375	0.0007801903317021328	-0.979684494473389	0.20050797547987825	0.0007759600634416031	6.728108138559529e-06	-0.10097020262467286	-0.07505888609325753	-0.009830194778801066	9.799723424699408	-0.45310936258341317	0.1964511030987086	-0.8497674476129131
37828	756	659900000	0.00377368599737313	0.0007764147985253722	-0.9798865181029763	0.19951834029501994	0.0007758789037926184	7.665339701229875e-06	-0.10100228659331817	-0.07505283434427329	-0.009837571532098095	9.799718596802013	-0.4535051311157525	0.19552190824289692	-0.8781901956901162
37829	756	679900000	0.003774529758281302	0.0007726419599242481	-0.9800876062911024	0.19852818425624827	0.0007757966598785951	8.396757837929303e-06	-0.1010346613889033	-0.07504901082773646	-0.00984396120122321	9.799713519511261	-0.45389913510849633	0.194591623309896	-0.8723987961141216
37830	756	699900000	0.0037753787484029514	0.0007688736203183218	-0.9802877579905692	0.19753750753334262	0.0007755837105748551	9.392295150016788e-06	-0.10106710239728518	-0.0750490350277686	-0.0098502135337489	9.799702388621043	-0.45429136682253873	0.19366025303515724	-0.8853842734689602
37831	756	719900000	0.003776233128965554	0.0007651067667308634	-0.9804869716329341	0.19654631294702332	0.0007756679076774202	1.0344037313637854e-05	-0.10109933790865598	-0.07504953606623638	-0.009857694732984795	9.799694564971517	-0.45468182282292735	0.19272779719543154	-0.8745744764711387
37832	756	739900000	0.003777093389978417	0.0007613436119858142	-0.9806852439288063	0.19555461196741372	0.000775540021898192	1.1387526236138083e-05	-0.1011304882430292	-0.07508932798743628	-0.009863704860863522	9.799685044528355	-0.4550704939607031	0.19179427244792158	-0.8903178169944307
37833	756	759900000	0.003777954218148037	0.000757580025382383	-0.9808825465648305	0.19456254258958453	0.0007756587879138183	1.1828998694932606e-05	-0.10114765419706893	-0.07514619292323013	-0.009865148642051909	9.799678517498192	-0.4554573339959914	0.19085980500794975	-0.8762540549689654
37834	756	779900000	0.0037788174126356295	0.0007538219013342327	-0.9810788695670679	0.19357015260754293	0.0007752159227286132	1.2561777178966943e-05	-0.10116004358917852	-0.07515997971044781	-0.009865363928662618	9.799665146094599	-0.45584231718303647	0.18992445163631644	-0.8811772934026572
37835	756	799900000	0.003779689837482325	0.0007500690714779794	-0.9812742168033274	0.19257742021882313	0.0007749310267041525	1.3964363710259815e-05	-0.10117474976829514	-0.07521342965921952	-0.009864555903939545	9.799655976427514	-0.45622543837508717	0.18898819202630562	-0.8686402167509533
37836	756	819900000	0.0037805673417787376	0.0007463224640900961	-0.9814685970894719	0.1915842980011091	0.0007744930660648073	1.497734490030376e-05	-0.10119438340031202	-0.07522630975092523	-0.009874702996041389	9.79964405148859	-0.45660672050229584	0.18805098737999537	-0.866336926617439
37837	756	839900000	0.0037814462581264156	0.0007425747074158671	-0.9816620074035485	0.19059079848575147	0.0007747031663596393	1.548877790636348e-05	-0.10121283030169799	-0.0752380005525918	-0.009879210505750274	9.79965478337062	-0.4569861651893868	0.18711284068959588	-0.8704039193643598
37838	756	859900000	0.003782328790234644	0.0007388256224012046	-0.9818544425734093	0.1895969454513498	0.0007749637472282394	1.621340353519193e-05	-0.10122894780856409	-0.07526628512454672	-0.009877049747481222	9.799653143463443	-0.45736375745822166	0.18617377583078737	-0.881892474687467
37839	756	879900000	0.00378322043356677	0.0007350843639011578	-0.9820458951318009	0.18860277502971484	0.000774415491914722	1.7651487023534604e-05	-0.10124148290910248	-0.07529973882791677	-0.009880955925032938	9.799646930281403	-0.45773946918190445	0.18523384318878794	-0.8748528765803912
37840	756	899900000	0.003784114845501135	0.0007313434470071411	-0.9822363294180692	0.18760847204461967	0.0007744094613375594	1.8324798692882606e-05	-0.10123529628042148	-0.07546654327231135	-0.009884199618650533	9.79964577054203	-0.4581132424183432	0.18429320847523362	-0.874976548641762
37841	756	919900000	0.00378501605246091	0.0007276064489535183	-0.9824257083938043	0.18661423238668037	0.0007740508756263588	1.94604619656767e-05	-0.10120927849602279	-0.07554516554009583	-0.009879983158670136	9.799633205497583	-0.4584849952237469	0.18335206369410129	-0.8614893518711756
37842	756	939900000	0.003785919370070441	0.0007238722627194687	-0.9826139878756063	0.1856202942963638	0.0007736198789541953	2.0114508248677832e-05	-0.10115913446837818	-0.07564441172910025	-0.009870615864073585	9.79961794028044	-0.45885464790603	0.18241063598198987	-0.857004566677181
37843	756	959900000	0.003786832615989393	0.0007201546428648285	-0.9828011497266445	0.18462676233963152	0.0007719416715221566	2.179131083972582e-05	-0.10109848726038795	-0.07570847718208959	-0.009872951995727224	9.799627322123493	-0.4592221458988974	0.18146904850343415	-0.8594440522213552
37844	756	979900000	0.003787760319597015	0.0007164641785181078	-0.982987187035724	0.1836336833874358	0.000769287222411586	2.4106799768374125e-05	-0.10103321307365142	-0.07579962711250245	-0.009866138862548335	9.799625875637874	-0.45958746337139345	0.1805273660245868	-0.8729654044104463
37845	756	999900000	0.0037887166184568484	0.0007128147384607322	-0.9831721103243461	0.18264101128143534	0.0007655457725669566	2.806383640292094e-05	-0.10097277691064456	-0.07588151951354537	-0.0098652495700012	9.799612304124329	-0.45995059144233036	0.1795855683321586	-0.8464480156283484
37846	757	19900000	0.0037897214851866064	0.0007092240394705872	-0.9833559062344321	0.18164882792406137	0.0007603920278416826	3.43040408200394e-05	-0.10090415270492892	-0.07599806677485266	-0.009857521575734506	9.79960017721977	-0.46031146322090166	0.17864376070703392	-0.8634522603869622
37847	757	39900000	0.0037908047339719	0.0007057325985076992	-0.9835385577900937	0.18065723644833862	0.0007517497632176083	4.420649942853572e-05	-0.10082519461968553	-0.0761823896966766	-0.009854578391292682	9.799581333189415	-0.46066998091608463	0.17770210463738034	-0.871834613085533
37848	757	59900000	0.0037920327625097466	0.0007024066501080093	-0.9837199853566299	0.17966668450878148	0.0007376080311484867	6.182651913134741e-05	-0.10070089244736974	-0.07652214483644437	-0.00987594385082272	9.79954575566682	-0.46102585337734836	0.17676111987801366	-0.8470024096465878
37849	757	79900000	0.003793529989987415	0.0006993980570168923	-0.9838999657331072	0.1786784189625695	0.0007102570984225449	9.439816127954269e-05	-0.1004500754571624	-0.07740621238304106	-0.00989956120235819	9.799472032288106	-0.4613783819347752	0.17582221094305087	-0.869211383404544
37850	757	99900000	0.0037949740694047172	0.0006962407985587758	-0.9840776489168785	0.17769719841008144	0.0007211014377546673	8.689131452661007e-05	-0.09971581964988219	-0.08334247043453205	-0.009690106143703102	9.800704367002396	-0.4617265855666538	0.17488918742639942	-0.8727623920756996
37851	757	119900000	0.0037961858416365344	0.0006928630562990289	-0.9842454318821122	0.17676549078662201	0.0007191913884720029	6.042235801816412e-05	-0.09466736898607807	-0.1148617191099426	-0.009111748463646058	9.799210243495338	-0.46205582104246207	0.17400215831306692	-0.878219274001432
37852	757	139900000	0.003797233345856214	0.0006898346014271	-0.9843899470848843	0.17595890777496506	0.0006327974432410588	5.059199918532476e-05	-0.08194088146647116	-0.14972135611508194	-0.008280413519011494	9.799123360275104	-0.4623394693136232	0.17323369469078187	-0.8651276999334704
37853	757	159900000	0.0037893262888333075	0.0006782463924064539	-0.9845015050877794	0.1753338742742115	0.0012466354806537033	-0.0009815118738870359	-0.06348678131578067	-0.1614340858570077	-0.00642280124906628	9.79784192041657	-0.46257611450565655	0.17262481364655896	-0.8766846270230464
37854	757	179900000	0.003791383997087199	0.0006769394788364713	-0.9845869568231164	0.17485334315969883	0.0003526290992834032	0.00017987847124747595	-0.04880598606992787	-0.11823791146193127	-0.004522801370831728	9.800743019357581	-0.4627412651050214	0.17216707032284284	-0.868048463104903
37855	757	199900000	0.0037913554624200135	0.0006748112166244638	-0.9846607316659127	0.17443742078100394	0.0003717332496192526	-3.9838311582277896e-05	-0.04224034896896287	-0.09288913127113885	-0.00394367582032013	9.799235565010045	-0.4628872380500813	0.17176961629483958	-0.8735814679202977
37856	757	219900000	0.0037925055405968753	0.0006726616211798439	-0.9847343185526549	0.17402151100569876	0.00039437580668977393	7.591334931426389e-05	-0.04223574170243037	-0.06513804446009136	-0.0036594878674363627	9.799721712428722	-0.4630308460242784	0.17137168878878994	-0.8800946413681418
37857	757	239900000	0.003793415721304492	0.0006703421990035017	-0.9848197887841883	0.17353715526528668	0.00043368201906417896	4.943180383851694e-05	-0.04918259904121506	-0.041815766108786	-0.0036801159705990875	9.801137351522623	-0.46319832864489735	0.17090860241486933	-0.8814959134577715
37858	757	259900000	0.0037939730534284084	0.00066773555702024	-0.9849369045394789	0.17287120631812994	0.0005268519676321535	9.866741178792108e-06	-0.0676153426008883	-0.0365472884368001	-0.006337235263833918	9.79967670874331	-0.4634288481134922	0.17027289695576744	-0.8660704913071892
37859	757	279900000	0.0037909267181273332	0.0006661029930775945	-0.9851110714182395	0.1718760080715994	0.0004973402412840322	-0.00032789271075951736	-0.10103119310971179	-0.025838148201160455	-0.009225239332905146	9.802737103111934	-0.46377765338754867	0.16932747889866126	-0.8742385740738537
37860	757	299900000	0.003792419651294076	0.0006669258152684342	-0.9853403991822471	0.17055635579630396	0.0004601490497644955	0.00016217884523909428	-0.13394225326536566	-0.07172930492400637	-0.012745238214803934	9.798648743324225	-0.4642267594445738	0.1680764850214817	-0.8622244825592631
37861	757	319900000	0.0037925516611092523	0.0006611903062672606	-0.9855730149889281	0.16920700784811138	0.0010946378424461307	-8.304149454528266e-05	-0.13692197386178784	-0.07409079705741525	-0.012976128706078262	9.798262557527618	-0.4646867037504555	0.1667855590933404	-0.8738379974439732
37862	757	339900000	0.003792817368323145	0.0006558807378742465	-0.9857988996256013	0.16788601446761983	0.001043721834775781	-6.197936425763654e-05	-0.13401367809250497	-0.055407775480105635	-0.012778992203628832	9.799562432644125	-0.46513311866718554	0.16552131961612393	-0.8369753772817444
37863	757	359900000	0.0037932938373814815	0.0006510555812761436	-0.9860088027494665	0.1666488162245896	0.000966676749350422	-3.250434396679103e-05	-0.125485018142057	-0.035595427178654035	-0.012065469106541174	9.799974461004314	-0.46554760654165717	0.164336641094867	-0.8775528157718141
37864	757	379900000	0.0037937695805862503	0.0006468083653502931	-0.986193870226911	0.16555011107871467	0.0008555276774639922	-2.2540376945801417e-05	-0.11141580312821263	-0.016016037371266157	-0.011276548990918685	9.799958612255685	-0.4659130198609765	0.16328396642344528	-0.8347951022763019
37865	757	399900000	0.0037989331762272893	0.0006417782371181288	-0.9863591756396507	0.16456224615289383	0.0009670169908862511	0.00042713974484859057	-0.1001570408557859	-0.07205191705107278	-0.00944761909567178	9.801330233534724	-0.46623171968896915	0.16233353843090664	-0.8715725947189984
37866	757	419900000	0.003799775411842259	0.0006378318387621945	-0.9865243321880676	0.16356924184654204	0.0007909518630449774	1.9118854360154193e-05	-0.10066220788290123	-0.07099781192562823	-0.009764792814953537	9.797766325028737	-0.4665572452832152	0.16138081523381814	-0.8586098063282552
37867	757	439900000	0.0037998122489304774	0.0006340254723708827	-0.9866886496449511	0.16257511525567633	0.0007643364451981459	-5.765477195015785e-05	-0.10075930366583453	-0.07489545198622219	-0.009808327518765892	9.799352643792046	-0.4668824994840792	0.16042699349830036	-0.849902166926864
37868	757	459900000	0.0038002510179867507	0.0006301907668386865	-0.9868519633913295	0.16158082591222245	0.0007736652564005751	-1.806560800531175e-05	-0.10075900819596076	-0.07586719058149466	-0.009813135400949313	9.799958937721845	-0.46720514122252854	0.15947235941928953	-0.8534698777744191
37869	757	479900000	0.003800919845378041	0.000626355415496865	-0.9870143212891319	0.1605860836354654	0.0007775581800021988	5.019102709006821e-06	-0.10078824661314113	-0.07569801532816002	-0.009811778310079957	9.79993750898352	-0.4675255496678397	0.1585167363615339	-0.8648357677868539
37870	757	499900000	0.0038016252162190924	0.000622517985836786	-0.9871757445154249	0.15959075649137505	0.0007785139097252745	8.984513938350826e-06	-0.10083096124765348	-0.075502080216969	-0.00980354277074777	9.799858188671186	-0.4678440967729396	0.15756005310863574	-0.8725572040730543
37871	757	519900000	0.0038023215869617396	0.0006186763578560213	-0.9873362346140634	0.15859482781048376	0.0007789553174680837	8.421231551235044e-06	-0.10087545062009975	-0.075413292120664	-0.009803381515163474	9.799819818863185	-0.46816086310377936	0.15660230512266365	-0.8922535239025564
37872	757	539900000	0.003803001628489119	0.0006148418816468224	-0.9874957900384372	0.1575982988627642	0.0007781606390965529	7.31494247620725e-06	-0.10091989746825633	-0.07534882395858095	-0.009820434941810719	9.799793018156272	-0.46847585414476184	0.15564351732553205	-0.8652784328897168
37873	757	559900000	0.0038036642063084	0.0006110149166708138	-0.98765438781686	0.1566013059507514	0.0007772612485675777	6.10150358543269e-06	-0.1009506253704792	-0.07527772859001126	-0.009830967832934436	9.799777455037963	-0.4687890255174368	0.15468382318995166	-0.8711889359431607
37874	757	579900000	0.0038043188970150596	0.00060718918047806	-0.987812024120472	0.1556038671821659	0.0007771272152057483	5.734727523594133e-06	-0.10097960470654276	-0.07523660514747282	-0.009835563117203542	9.799767801204725	-0.46910035410011286	0.15372322911593136	-0.8634418821532669
37875	757	599900000	0.0038049707889570884	0.0006033646358044318	-0.9879687170163979	0.1546058612905226	0.0007771244347613891	5.870140177502331e-06	-0.10102094665964062	-0.07515801193912193	-0.009838992433848288	9.799758782473154	-0.4694098660004789	0.1527616201309543	-0.8974827073585266
37876	757	619900000	0.003805620288749083	0.0005995435344075202	-0.9881244699219988	0.1536072581069575	0.000776917818059363	6.080740406216734e-06	-0.10106542592011583	-0.0751433439958465	-0.009843871528089056	9.799758365102422	-0.46971756580199164	0.151798973471387	-0.834824932381008
37877	757	639900000	0.003806259313447597	0.0005957274840112808	-0.9882792821346936	0.1526080535297479	0.0007764302802782291	5.517305896349479e-06	-0.10111040394628519	-0.0751283256984275	-0.009855431902872705	9.799753752425124	-0.4700234646703547	0.1508352924405571	-0.8875590848887978
37878	757	659900000	0.003806900788811898	0.0005919144022546913	-0.9884331518148222	0.15160825022781974	0.0007763460359738159	6.199224081230327e-06	-0.10115519187936614	-0.07511777249782818	-0.009857427440474015	9.799746050043286	-0.47032753654538545	0.14987057492957884	-0.8751394882141325
37879	757	679900000	0.0038075450269686576	0.0005881047669229072	-0.9885860777778135	0.15060784693212284	0.000776219817777562	6.919336659734659e-06	-0.1012001908740202	-0.0751094198332367	-0.009862832088371949	9.799739833729328	-0.47062977757007685	0.14890482283774545	-0.8800529868075688
37880	757	699900000	0.0038081922877823988	0.000584299015927761	-0.9887380586128419	0.14960684381627617	0.0007760541421281801	7.671791044338758e-06	-0.10124525521321165	-0.07510296460455892	-0.009868421791515718	9.799734027845982	-0.4709301835467028	0.14793803940229822	-0.8704432842312083
37881	757	719900000	0.0038088436174988547	0.0005804985622556597	-0.9888890925979621	0.1486052430854843	0.0007757635082326374	8.548847905408444e-06	-0.1012901799627308	-0.07510063683278326	-0.009874414810324195	9.799722808390717	-0.47122874807191023	0.14697023129285097	-0.8748256486271754
37882	757	739900000	0.0038094989183030327	0.0005767010743909464	-0.9890391774131485	0.1476030510381986	0.0007756993592011455	9.381467855404522e-06	-0.1013345503449953	-0.07509830518601313	-0.009881974027171742	9.799711856108681	-0.47152546648408344	0.14600140299486275	-0.885153195103981
37883	757	759900000	0.003810155036585932	0.000572905110072141	-0.9891882970837792	0.14660036633932785	0.0007756927566806254	9.880890779478258e-06	-0.10136903027055212	-0.07519245600191807	-0.009887249599570712	9.799704368700176	-0.4718203121037502	0.1450316500512463	-0.8589422056044448
37884	757	779900000	0.0038108129091587004	0.0005691138128858012	-0.98933643313319	0.1455973072887565	0.0007753430890176585	1.0519065258449959e-05	-0.10139164247234347	-0.07516952728584224	-0.00988704009108098	9.799693636173448	-0.47211324511981123	0.14406109388320404	-0.8783606693006465
37885	757	799900000	0.003811475260070139	0.0005653284678661229	-0.9894835742773804	0.144593946260987	0.0007748778792501406	1.1445111426992468e-05	-0.10140703464202724	-0.07516867546697774	-0.009888903290865529	9.799685408174371	-0.4724042373608753	0.14308980833714036	-0.8671333308038703
37886	757	819900000	0.0038121487895824866	0.0005615468256738027	-0.9896297168296251	0.1435903052245693	0.0007747233977215724	1.3001197070141848e-05	-0.10142030278745151	-0.07518106937051311	-0.0098927082549778	9.799670514523836	-0.472693269751592	0.1421178118589095	-0.8950989570115364
37887	757	839900000	0.0038128234862203573	0.0005577761911948377	-0.9897748574263628	0.1425864049248966	0.00077369337086359	1.367127868092414e-05	-0.10143157727729858	-0.07519152748039008	-0.009904241920500961	9.799656708716615	-0.47298035013606643	0.14114514234527364	-0.8508310246197348
37888	757	859900000	0.003813497331735859	0.000553998153659932	-0.9899189931858605	0.1415822632042556	0.0007744499730512807	1.3878071839287255e-05	-0.10144114212037598	-0.07519850794695263	-0.009902011509414952	9.79968729614464	-0.47326547994792245	0.14017178872635455	-0.8624325802377966
37889	757	879900000	0.003814177378669361	0.0005502269809783837	-0.9900621175835146	0.1405779236837728	0.000773877610866435	1.4985796967724514e-05	-0.10144640589415763	-0.0752280977967962	-0.009905874946884285	9.799675292339824	-0.47354862980879925	0.13919781871959658	-0.8833051284712604
37890	757	899900000	0.0038148620323441083	0.0005464605274689815	-0.9902042134718578	0.139573506909964	0.0007734480184623129	1.5904776647699655e-05	-0.10143959742605928	-0.07536002114850304	-0.00991422432856933	9.79967830293873	-0.4738297681725399	0.13822334820127372	-0.8664903082445813
37891	757	919900000	0.0038155526711523336	0.0005426984231363253	-0.9903452479445	0.13856924951078542	0.0007729820961707384	1.695433650058581e-05	-0.10140900284509263	-0.07542949177817558	-0.00991126542111261	9.799658856916203	-0.474108826727205	0.13724860750816958	-0.8768291707581314
37892	757	939900000	0.0038162442424047953	0.0005389380523843658	-0.990485189313098	0.13756538655146675	0.0007726135093401641	1.7466376273262472e-05	-0.10135479321576767	-0.07556157737489796	-0.009909653089088337	9.799656942611112	-0.474385751104759	0.1362738235500886	-0.8642707284136893
37893	757	959900000	0.003816939261726177	0.0005351970327069906	-0.9906240192586567	0.13656206283823108	0.0007704785585914213	1.846919051701906e-05	-0.10128609950286716	-0.07561605885094899	-0.009904444439168318	9.799653701408824	-0.4746604956351577	0.13529916948505355	-0.854927629334342
37894	757	979900000	0.0038176552440453595	0.0005314767349442435	-0.9907617252802023	0.13555938462797373	0.0007684055337979329	2.1223266478519125e-05	-0.10120681263943566	-0.07567803374008356	-0.009893839797388511	9.799633001423585	-0.4749330043420442	0.13432475005566918	-0.8817230405141028
37895	757	999900000	0.0038184006255916197	0.0005277913792748959	-0.9908983093441551	0.1345573550268341	0.0007650348923365683	2.5003555545889633e-05	-0.10112735349430964	-0.07575793857684993	-0.009889166011796405	9.79962566520078	-0.47520326250902173	0.13335059487480666	-0.887803376114277
37896	758	19900000	0.0038191915669553026	0.0005241575811726143	-0.9910337606207421	0.13355607191181845	0.0007601942755649589	3.0604960783042054e-05	-0.10103815904424115	-0.07583565067210854	-0.00988200333271821	9.799612028009461	-0.47547121634498146	0.1323768275276564	-0.8656714894289281
37897	758	39900000	0.003820056227830748	0.0005206069091177623	-0.9911680562195849	0.13255572589953252	0.0007525222978963397	3.941327013167266e-05	-0.10092988207933344	-0.0759680836560257	-0.009874900351347943	9.799596306501648	-0.47573676422796846	0.13140368449381962	-0.8703512760774043
37898	758	59900000	0.003821047730223557	0.0005171962858313742	-0.9913011480888311	0.1315567022238354	0.000739754658516179	5.4232814963878674e-05	-0.10078290696725804	-0.07623198975062986	-0.009865750956678104	9.79956381672505	-0.47599970621203125	0.13043162892131893	-0.8749605533932638
37899	758	79900000	0.0038222738815286974	0.0005140452941654522	-0.9914329133266137	0.13055996458529523	0.0007161621867683878	8.129790030288096e-05	-0.10053892607105473	-0.07691160316354534	-0.009935095905529504	9.799500201381061	-0.4762595862125683	0.12946178010639692	-0.8769656336839704
37900	758	99900000	0.0038238575868010005	0.0005111713432089857	-0.9915629722445185	0.12956847182331918	0.0006912712287087541	0.0001207466181405558	-0.09999674126039547	-0.07963103866300955	-0.009736610611942684	9.800907408600299	-0.47651543635983373	0.12849701151354953	-0.8509556332931857
37901	758	119900000	0.0038246131732042376	0.0005075144415560309	-0.9916875188881445	0.12861173991764152	0.0007446020833541008	2.8819769086277875e-05	-0.09647830302115318	-0.10627067965165077	-0.00981352958218049	9.799243418215347	-0.47676197878977505	0.12756435335383515	-0.8719059765419366
37902	758	139900000	0.0038255569594608805	0.0005043345069907165	-0.991797149746554	0.12776354924338432	0.0006574524684742381	5.381375907701705e-05	-0.08552273841752885	-0.14126740647594294	-0.008094527521945595	9.79906835819691	-0.4769785284723698	0.12673725205326036	-0.8622942015794051
37903	758	159900000	0.0038197501465017853	0.0004947868603895604	-0.991883208865365	0.12709392064818825	0.001133253542655718	-0.000697052954004239	-0.06750974052103778	-0.16168223486056493	-0.006438677418088637	9.806154952928557	-0.47716132523882065	0.12607340217818797	-0.8748654619644056
37904	758	179900000	0.00381778710481913	0.0004916665171504066	-0.9919470632784793	0.126594653990044	0.0004784193815259883	-0.00023405621583409543	-0.05033187959764155	-0.13638708880617095	-0.0052638760930435145	9.791947117925655	-0.4772920607869544	0.12558468594109023	-0.8527255716284794
37905	758	199900000	0.0038185857244997833	0.0004900604065090735	-0.991999021398294	0.1261868447528885	0.0003276752722486107	5.9100455001028154e-05	-0.04110962824392124	-0.10183640973673153	-0.003821869419477767	9.799559254870013	-0.47739412387935903	0.12518651822812712	-0.8699773539345508
37906	758	219900000	0.0038184177392455113	0.0004884719659421133	-0.9920474345036101	0.12580567863142236	0.00030337748858665466	-3.651566880122314e-05	-0.03842195421985541	-0.0735040074495916	-0.003608098593604855	9.799907878129666	-0.47749081427817297	0.12481435564897897	-0.881160145979449
37907	758	239900000	0.0038184306655247215	0.0004867887609122224	-0.9921002216247327	0.12538872706950754	0.0003289325797328096	-1.968274052900146e-05	-0.04202702258179132	-0.04621198464844169	-0.003785271229603757	9.79980379564786	-0.4775958970724992	0.12440723948856285	-0.8685903266662058
37908	758	259900000	0.0038185341820506525	0.00048472786432701703	-0.9921651042811824	0.12487429552277232	0.00040535012874608813	-1.530448678263571e-05	-0.05184953087024616	-0.018683765585149777	-0.004541316866338574	9.800124697064856	-0.4777249119569507	0.12390485920352326	-0.8825200856178271
37909	758	279900000	0.0038187331779745864	0.000482065666921649	-0.992249520037337	0.1242017506933073	0.0005275243337342159	-1.3134645554862135e-05	-0.06778066589235564	0.008131771200383761	-0.006056628251046444	9.800285744879414	-0.47789266228008526	0.12324795908986722	-0.862521504173224
37910	758	299900000	0.003819510066246693	0.00047919375419020084	-0.9923604147138898	0.12331256637130049	0.0006395161956524558	4.193385347353235e-05	-0.08960548080192075	0.02734640059533549	-0.008257693230430832	9.797435390121617	-0.4781120292110491	0.12238020212897567	-0.8645636930007676
37911	758	319900000	0.0038219341424060326	0.0004769057765112091	-0.9924839964865857	0.12231386715457278	0.0006443179942827862	0.00021299697849110503	-0.1006299023663327	-0.07835074862297443	-0.00985645825023347	9.802545503434873	-0.47835364660752394	0.12140650363486227	-0.8838809301065369
37912	758	339900000	0.003823429586072501	0.0004735848663639382	-0.9926063942190957	0.12131654157179031	0.000734894979043331	0.00010858449853064738	-0.10047873836914788	-0.0755035580767921	-0.00974559579239229	9.799558992273482	-0.4785947543603459	0.12043219033442569	-0.8879775994768857
37913	758	359900000	0.0038244109837931874	0.00046989788449863107	-0.9927277283982432	0.12031961746061717	0.0007647914009871627	5.350653355914692e-05	-0.10042586973180662	-0.07547125777347027	-0.009738877764489121	9.799515698858086	-0.4788347348942707	0.11945737974327558	-0.8701517109616009
37914	758	379900000	0.0038252796045341072	0.00046604209007961413	-0.9928480868492295	0.11932236370665104	0.0007802731854534712	4.066835012419247e-05	-0.10044679512756201	-0.07564937106828405	-0.009738167322526251	9.799652458136118	-0.4790730296545285	0.1184816190557718	-0.8607590719296117
37915	758	399900000	0.003826248281083269	0.0004620133528199896	-0.9929676036840565	0.11832364261505812	0.0007991597502924154	4.892910429027707e-05	-0.10058236636110655	-0.07601250292928274	-0.009778902724160111	9.799673398085691	-0.4793095382912301	0.11750375358579532	-0.8732741247806645
37916	758	419900000	0.0038274460525214585	0.00045779476503734194	-0.993086468168459	0.11732181306715464	0.0008218812639274525	6.982432792595317e-05	-0.10088322405686183	-0.07733822365589856	-0.009761727965589283	9.799601334382714	-0.4795444166432678	0.11652213391593584	-0.8826406615379351
37917	758	439900000	0.0038292155611760067	0.0004532279340550851	-0.9932055081558457	0.11630971696945322	0.0008671100611440195	0.00012291995873909707	-0.10190468131714372	-0.08162174227180284	-0.009603888643901218	9.799531581261457	-0.4797787499675016	0.11552945500228459	-0.8704994325806776
37918	758	459900000	0.003830232407951301	0.000449126971059371	-0.9933277026162858	0.11526145418012472	0.0008260775857330425	5.401491220027316e-05	-0.10553368109306403	-0.0973120297932088	-0.010385272476572619	9.800514937571268	-0.48002057131161396	0.11450217342412969	-0.8479535495174336
37919	758	479900000	0.003825497291690564	0.0004481645315177148	-0.9934590543161546	0.11412393314408742	0.0004826206055481087	-0.00048066715485308115	-0.1145069635838899	-0.11036995732824278	-0.010900717994279177	9.802164333004132	-0.48028988980839016	0.11339415539668349	-0.9026191932122494
37920	758	499900000	0.0038236365401285322	0.0004447036230682982	-0.993595727111304	0.11292791111348878	0.0007862547385483695	-0.0002230380265001852	-0.12037844373740997	-0.07945768528134449	-0.011637532308823834	9.7979819275923	-0.4805653650847822	0.11222381534580941	-0.8960551598913629
37921	758	519900000	0.003823802623863743	0.00044016065961735725	-0.9937284312935595	0.1117541481598294	0.0009079683623387776	-3.334432828445535e-05	-0.11812146916406402	-0.05717870772683779	-0.011383165870341317	9.799167627204769	-0.4808297060101157	0.11107240672679655	-0.8539015187652361
37922	758	539900000	0.003824218273653748	0.00043599559410549505	-0.9938509050573839	0.11065967548776036	0.0008424351916604823	-3.899202859692301e-06	-0.11012796759648892	-0.03698291662232243	-0.011072770448201985	9.799889298792182	-0.48107323475248165	0.10999842795186002	-0.8758766380141071
37923	758	559900000	0.0038296359138040807	0.00043005799685734436	-0.9939614322102163	0.10966230080343367	0.00103629702856261	0.0004739445788519322	-0.10034477313712459	-0.06092641060287809	-0.00946042178251003	9.798736993510548	-0.48128475875593135	0.10901472517323388	-0.8732869916410091
37924	758	579900000	0.003827971212470693	0.00042674077908997466	-0.9940719404370829	0.10865607099631736	0.0007015651495642943	-0.00020088920962081162	-0.10122603915868982	-0.07407184483696466	-0.00988501340406117	9.799136749972124	-0.4815079570125488	0.10802792405498712	-0.8663601531578742
37925	758	599900000	0.003828325997251614	0.0004228591926038771	-0.994181051344201	0.10765315721473857	0.0007782814209931091	-5.876555408452148e-06	-0.10088091726920577	-0.07849542780435967	-0.009862947840253974	9.800895840768272	-0.48172502449507976	0.10704266710164541	-0.8603957686813211
37926	758	619900000	0.003829307198303135	0.0004188574380172822	-0.9942891753001837	0.10664987972664694	0.0007970693824278583	5.550014284511026e-05	-0.10090637893925458	-0.07575358282364358	-0.009799288280463902	9.800060449200094	-0.4819390896853591	0.10605640300118245	-0.8841410284289681
37927	758	639900000	0.003830019251419236	0.0004149445706093085	-0.9943964162858908	0.10564528409405961	0.0007858287395492033	3.008035926740273e-05	-0.10102806912528019	-0.07502269259697011	-0.009836210301428706	9.799656972250878	-0.4821518621476325	0.10506873048960877	-0.8886139747879946
37928	758	659900000	0.0038305621502706094	0.0004110724551841716	-0.9945027409639309	0.10463964845257395	0.0007803496450761419	1.4084344774310834e-05	-0.10112182956634043	-0.07510496409129806	-0.009850330875437654	9.799653025736891	-0.48236311205945726	0.10407982054331524	-0.8727439945181685
37929	758	679900000	0.0038310587414803637	0.00040721332406710444	-0.9946081304846883	0.10363312182879267	0.0007788766450827617	1.0009747410970129e-05	-0.10120065946656356	-0.075190266716109	-0.009860612189064028	9.799697494251932	-0.48257259497967747	0.10308975008172251	-0.8674490238243989
37930	758	699900000	0.0038315458173425907	0.0004033630187856922	-0.9947125769363613	0.10262575621913059	0.0007781832269792284	9.550267949173928e-06	-0.10127433613755343	-0.07520693681132477	-0.009869197097583307	9.799720527894761	-0.48278023201736325	0.10209855828674004	-0.8758013266207693
37931	758	719900000	0.0038320333437039337	0.00039951961186011654	-0.9948160758795241	0.10161757267420568	0.0007777768391416761	1.0061909364751888e-05	-0.10134597600201162	-0.07521293677016333	-0.009878234140032024	9.799724410353972	-0.48298599696618627	0.1011062629905545	-0.865352320833406
37932	758	739900000	0.0038325122789617245	0.00039568622336872826	-0.9949186185626763	0.10060863640553072	0.0007769431303740149	9.705572225419597e-06	-0.10141114511271948	-0.07516432783580751	-0.009885780907262066	9.799717743226033	-0.48318988689859615	0.10011293735348606	-0.8759123123870668
37933	758	759900000	0.0038329894537133665	0.000391860308940556	-0.9950201854208819	0.09959912269864547	0.0007763645015399227	1.000244631720104e-05	-0.10145878082743534	-0.0752063852066214	-0.009894602377619851	9.799715381261358	-0.4833918510113221	0.09911874973628054	-0.8583502682222974
37934	758	779900000	0.0038334652008192777	0.0003880379566156223	-0.9951207602582898	0.09858918030931176	0.0007761212858720293	1.0292909858616555e-05	-0.10149155656876765	-0.07521798076634587	-0.009896373738417332	9.799705506814579	-0.48359185660575693	0.09812384155415602	-0.8768092010032216
37935	758	799900000	0.003833943444178181	0.00038422180435313387	-0.9952203396432115	0.09757883383051226	0.0007756451942336865	1.0999726659461464e-05	-0.10152195657979128	-0.075224122432267	-0.009900745750946608	9.799701349042785	-0.48378988906468723	0.0971282435692332	-0.8805805109613292
37936	758	819900000	0.0038344155711904694	0.00038041686161256765	-0.9953189208462936	0.09656810211249175	0.0007745792633190509	1.0897895598025426e-05	-0.1015505607755518	-0.0752333232588799	-0.009912590288109065	9.799706722083066	-0.48398595640503717	0.0961319871790389	-0.8569025425324047
37937	758	839900000	0.003834894573294611	0.00037661830080787146	-0.9954164999856088	0.09555701595732058	0.0007741082344521879	1.2041532119165453e-05	-0.10157616404864067	-0.07523678694826014	-0.009921869511291752	9.799690781837068	-0.48418002876708055	0.09513509488639925	-0.8642937133451775
37938	758	859900000	0.0038353726654772515	0.0003728180566492036	-0.995513074161378	0.09454559797778249	0.0007743565055567222	1.2332761487825607e-05	-0.10159959062683342	-0.07524010835415407	-0.009923726919873935	9.799705373156137	-0.48437211455893114	0.09413757910630172	-0.8554630423981058
37939	758	879900000	0.003835855773319417	0.0003690203778552129	-0.9956086389372116	0.09353388748491089	0.0007742230987449996	1.3254379425045897e-05	-0.10161916811316538	-0.07526157008134352	-0.009925367478870673	9.799701033531345	-0.48456219345287765	0.09313948765160066	-0.8715062915808658
37940	758	899900000	0.003836347901865886	0.00036523044777546425	-0.9957031867656028	0.09252195904929439	0.0007735820762722637	1.4623094412063418e-05	-0.10163135740562984	-0.07535608906130128	-0.00993432856183474	9.799702854286675	-0.48475024211667067	0.09214090492070012	-0.8816563322351033
37941	758	919900000	0.003836835758117339	0.000361442968788331	-0.9957966947326992	0.09151005851695958	0.0007732498085162229	1.4618286481956606e-05	-0.10161895916797815	-0.07543397425594903	-0.0099304284210626	9.799685989497027	-0.4849362381343591	0.09114206802305183	-0.8898720488849322
37942	758	939900000	0.0038373266284742074	0.0003576600191952933	-0.9958891454374899	0.09049838122001709	0.0007727024890043462	1.5357464234048073e-05	-0.10158705604618573	-0.07557317567503802	-0.009933950559985742	9.799678932785339	-0.48512013338350013	0.09014317422107274	-0.8703450890830626
37943	758	959900000	0.0038378263369942475	0.00035388923904686734	-0.9959805217057064	0.08948712887473088	0.0007713690347326014	1.6744876637310236e-05	-0.10153501642945087	-0.07562813941324448	-0.009928214802434467	9.79967043847393	-0.4853018818612296	0.08914443714935152	-0.8736875412415761
37944	758	979900000	0.003838342990427174	0.00035013666967928595	-0.9960708104523005	0.08847646631900385	0.0007694420739865901	1.8992020283294816e-05	-0.1014665489884716	-0.07564999392970688	-0.009922793641978843	9.799655784112472	-0.4854814420611172	0.088146031391232	-0.9042230610895867
37945	758	999900000	0.0038388879239787672	0.0003464145509794795	-0.9961600036635901	0.08746650808979604	0.0007663504802175179	2.2474180666434418e-05	-0.10138671082582887	-0.07570133841919086	-0.009915548815967831	9.799650428789977	-0.485658776110876	0.0871480926030109	-0.8487399531150643
37946	759	19900000	0.00383946582224669	0.000342742921267088	-0.996248094920356	0.08645735594529343	0.0007612616786924638	2.6594708141881312e-05	-0.10129679166039848	-0.07577601773554019	-0.009909035134061323	9.799633290047222	-0.48583385970848175	0.0861507585690314	-0.8817038733384581
37947	759	39900000	0.003840114651961058	0.00033914006471618134	-0.9963350721943829	0.08544918032895588	0.0007546103031281483	3.4650075971758834e-05	-0.10118989795326863	-0.07588610467638296	-0.009903334225768409	9.799620527002169	-0.4860066003373592	0.08515422671999093	-0.8476118437628194
37948	759	59900000	0.0038408765513358884	0.00033565405454388244	-0.996420911718081	0.08444229801812203	0.0007433994275396702	4.7307095669651596e-05	-0.10105136037314333	-0.07609814387216701	-0.009895609759428638	9.799597761457754	-0.48617687065071535	0.08415888961792203	-0.8726346787408981
37949	759	79900000	0.003841843259920652	0.00033237690171750747	-0.9965055562115641	0.08343743887154514	0.000723500712763042	6.986944486748664e-05	-0.10083975016720777	-0.0766162350891226	-0.009915528341329189	9.799550838686159	-0.4863443848722085	0.08316561526714902	-0.8577934214669227
37950	759	99900000	0.0038432072963708627	0.0003295081745801436	-0.9965888406211679	0.0824366661831772	0.0006845009011226261	0.00011325789244358448	-0.10042132764541932	-0.0781449385703657	-0.009953125353437977	9.799520899562722	-0.4865084536937767	0.08217675560061882	-0.8702906283956057
37951	759	119900000	0.0038440531957935854	0.0003258291136580334	-0.9966693607706739	0.08145736548276727	0.0007526433043414182	5.5295645694743555e-05	-0.09825837023650494	-0.09705075746421382	-0.00971154553969425	9.800667273351957	-0.4866680304610703	0.08120743490097178	-0.8525583155128246
37952	759	139900000	0.0038447016704178617	0.00032249083856800506	-0.996741732184157	0.08056695098643699	0.0006826361846690959	3.863111494171694e-05	-0.08933311066424465	-0.13179037858668508	-0.008570539653455882	9.799333618646935	-0.4868116612389611	0.08032591976789702	-0.889703249426835
37953	759	159900000	0.0038433076339127394	0.00031735337115290776	-0.9968000870159879	0.0798418110903553	0.0007815181055663166	-0.000179391055037154	-0.07274594285176542	-0.16266743569721887	-0.007289680970812538	9.802610019598799	-0.4869311244700489	0.07960396589401023	-0.8623176079027729
37954	759	179900000	0.003837979838172525	0.0003099027145350358	-0.9968429767930811	0.07930481378439946	0.0009078891807797084	-0.0005900042165945182	-0.0538676440701921	-0.144670089285171	-0.00545845429019424	9.796809380024877	-0.48702685866862505	0.07906352392456018	-0.8580478130741105
37955	759	199900000	0.0038366718904105793	0.00030823686565796093	-0.9968764172726449	0.07888341793112033	0.00031845353785137293	-0.00014336805855769087	-0.042271151218656516	-0.11279370072440509	-0.004031745343279795	9.79835819452412	-0.48709601842570255	0.07864621112389698	-0.870513642090271
37956	759	219900000	0.0038369439173160692	0.0003067879711112199	-0.9969058354788864	0.07851075678312947	0.0002904673610672335	1.5888335579896476e-05	-0.03738120845652421	-0.08340526820035367	-0.003410036773770766	9.799286254335792	-0.48715440181684855	0.0782769715534736	-0.878860832679463
37957	759	239900000	0.003836804510798398	0.000305251026957688	-0.9969363075773829	0.07812288004758933	0.0003018853517438911	-2.575656425576263e-05	-0.038906312437655806	-0.05458589753621575	-0.003584304975445964	9.80013638137921	-0.4872156097140324	0.07789262849079784	-0.8689577870697476
37958	759	259900000	0.0038366745041479916	0.00030341898097890094	-0.9969726488108095	0.07765774519537345	0.0003612001486875108	-2.7018438497125808e-05	-0.04665419311213448	-0.027568258338142818	-0.004107156269298209	9.799976916320306	-0.4872885450439173	0.07743169796120333	-0.8882622831373717
37959	759	279900000	0.003836676910014285	0.0003010706749784073	-0.9970194737661225	0.07705425489783878	0.00046709873891305893	-1.765072779353645e-05	-0.060529066719227566	-0.0004704597702207547	-0.005422046353320706	9.800230216047312	-0.48738222746105553	0.07683361310185391	-0.8765876944655125
37960	759	299900000	0.0038367410921047013	0.00029797856706515033	-0.9970811251283027	0.07625234776348738	0.0006183057978849435	-1.693749311344429e-05	-0.08042557329748444	0.02593397683723221	-0.0072330361498047285	9.800468071178697	-0.4875054706458893	0.07603879783573278	-0.8728169085640434
37961	759	319900000	0.003842353748270018	0.0002973864157492742	-0.9971565419709004	0.07525940926973151	0.0004850522435677416	0.00055576410056299	-0.09957871621076078	-0.04117325789419938	-0.009770824380030433	9.801336075582572	-0.4876462641192111	0.07505931590980491	-0.876763608720076
37962	759	339900000	0.0038419814869193967	0.00029324726358827144	-0.9972314103232612	0.07426080695074626	0.000795861601170442	-6.734130301621966e-05	-0.10013817572830598	-0.07394609778594396	-0.009702818552360503	9.798155970681464	-0.48779676970529223	0.07406867976790785	-0.8675999301571575
37963	759	359900000	0.003841936116970385	0.0002892743211021161	-0.9973052791193511	0.07326210540186269	0.000781722981933504	-3.312143592373434e-05	-0.10014070270843074	-0.07532558089910672	-0.00970351489618451	9.799421325186287	-0.48794469962681924	0.07307796606841803	-0.8683229003403694
37964	759	379900000	0.0038421424051020593	0.0002854090172590541	-0.9973781433005241	0.07226337765307556	0.0007728128268180211	-6.848130405298193e-06	-0.10013598970249524	-0.07555994343256478	-0.009724024629617427	9.7996866254317	-0.48809018134220167	0.07208715953339444	-0.8627843525243153
37965	759	399900000	0.0038424437491849065	0.0002815663770264202	-0.9974500124027887	0.0712645010091725	0.0007712681211899507	3.182892072114406e-06	-0.1001436553975151	-0.07538941027901996	-0.009728253978834206	9.799706335413674	-0.4882335148854811	0.07109601580331937	-0.8746841900719919
37966	759	419900000	0.00384278016370196	0.0002777339598695336	-0.9975209005231597	0.07026527537785479	0.0007706048233894396	7.1406105631200425e-06	-0.10017147717638045	-0.07541966171293916	-0.009727508695057965	9.799698431062556	-0.48837483318185315	0.07010432682344449	-0.8732768319003552
37967	759	439900000	0.003843129239569009	0.00027389954338783936	-0.9975908120527349	0.06926562671811479	0.0007710286631192481	8.776589962968129e-06	-0.10020681201889609	-0.07542030104719896	-0.009732321729148863	9.799696016239093	-0.4885141847955138	0.06911200411881707	-0.8788288159261771
37968	759	459900000	0.003843481379192813	0.00027005881695887956	-0.9976597496087497	0.06826550175403502	0.0007718357319870356	9.425877967262258e-06	-0.10024757891973753	-0.07543191924132692	-0.009735950951984498	9.799696866120557	-0.4886515916169078	0.0681189916648006	-0.8758143825715096
37969	759	479900000	0.0038438347880882977	0.0002662101806295182	-0.9977277160636331	0.06726483973598787	0.0007728137262319862	9.886255368631768e-06	-0.100294526315844	-0.07543844814204315	-0.009741782981096675	9.79969253779673	-0.4887870622290286	0.06712522974404625	-0.8908485324381816
37970	759	499900000	0.0038441920493039613	0.0002623509547313706	-0.9977947133640159	0.0662635898686895	0.0007740963494629297	1.0587557709021008e-05	-0.10034665451882098	-0.07545545960342301	-0.009742114793431343	9.799690506921953	-0.4889205959223484	0.06613066603412107	-0.8899895363006461
37971	759	519900000	0.003844548806543588	0.00025847266335069766	-0.9978607437014111	0.06526169486018113	0.0007762179903583058	1.079958103469639e-05	-0.10040461161676312	-0.07547725160142277	-0.009727474887939572	9.799705563003076	-0.4890522051087007	0.06513523253030794	-0.8915005725636516
37972	759	539900000	0.003844923468499631	0.00025457310254284234	-0.9979258097490041	0.06425908490518255	0.0007787071733343013	1.2836620191913207e-05	-0.10046965161003014	-0.07550359362606308	-0.009742026307746903	9.79970054259777	-0.4891818630689267	0.06413885713793552	-0.8834510434738329
37973	759	559900000	0.00384533079835853	0.0002506424242803622	-0.9979899162521104	0.0632556532535403	0.0007823138948108388	1.6286532899049215e-05	-0.10054547213050433	-0.07555995193767318	-0.009819723627297869	9.799696822894347	-0.4893095543387343	0.0631414185276403	-0.8749600458329275
37974	759	579900000	0.003845794218117745	0.0002466629314916446	-0.9980530731390146	0.062251202574721956	0.0007879083851776226	2.19661698703955e-05	-0.10064114304030114	-0.075675405625086	-0.009772547522100664	9.79968334360953	-0.4894352596082894	0.06214269142092089	-0.8853142822885555
37975	759	599900000	0.003846375989242396	0.0002425919923922314	-0.9981153179515885	0.06124507009771552	0.0007983962534828892	3.360125071717801e-05	-0.10080327964656455	-0.07597824165065806	-0.009789055844141262	9.799660916070769	-0.4895589500625008	0.06114194353806439	-0.8596562662966792
37976	759	619900000	0.0038471966696272076	0.00023834891031140364	-0.9981767681168613	0.0602352210866696	0.0008184515549897166	5.678867439184198e-05	-0.10116929392959328	-0.0771595850761423	-0.00982986579720772	9.799614897568006	-0.48968065924643717	0.06013701520852994	-0.8799101307399169
37977	759	639900000	0.0038484018108861495	0.00023386711103113854	-0.9982378502826988	0.05921426663104487	0.0008488592799598289	9.413302775003347e-05	-0.10227549653026977	-0.08188602146039509	-0.00965553394971907	9.799615622962058	-0.4898009928936898	0.059120477925549794	-0.8520934712216872
37978	759	659900000	0.0038488404247918736	0.0002299298907466745	-0.9983000148747614	0.05815680407898415	0.0008040335069615131	2.1277281380379344e-05	-0.10592651187692574	-0.09533863595621947	-0.010256181960533987	9.80036938936871	-0.48992475719782475	0.05806870080169704	-0.8696289920485942
37979	759	679900000	0.0038425745982178365	0.00022979514710228717	-0.9983648087649826	0.05703411640682739	0.00041060587479663273	-0.0006254254229679693	-0.11245484844213005	-0.09235316769612532	-0.01104281435549806	9.801181991333634	-0.49006499228123496	0.05695951123522183	-0.8592575641346644
37980	759	699900000	0.003842661344134496	0.00022555004714609116	-0.9984282906429364	0.055911819186955244	0.0008570206304544319	-1.4154688132549002e-05	-0.11240665868958051	-0.05981343960132235	-0.010984759197778131	9.798116695220509	-0.49019203580374227	0.055842727462201036	-0.8716449112911194
37981	759	719900000	0.0038440534629735207	0.00022096845595707864	-0.9984865309993287	0.05486184319581264	0.0008700066027972909	0.00011467901141383382	-0.10515643326243636	-0.042547866159746844	-0.010301285024407145	9.798786334992624	-0.4903063851349732	0.05479653484258531	-0.8759703890988353
37982	759	739900000	0.0038477556876542183	0.0002152067610725781	-0.998540866759321	0.053863585786340554	0.0009805448579759766	0.00033922386734719346	-0.09997047377361132	-0.08118143517734856	-0.00966274073548079	9.80137069507007	-0.4904090473618123	0.053799050537660015	-0.858974172996008
37983	759	759900000	0.003847148236630412	0.0002117801800264835	-0.9985950751640689	0.05284912920444835	0.0007303910072498711	-7.813955308805582e-05	-0.10158833345429319	-0.06803688050145283	-0.009889781014206463	9.797686282090075	-0.4905186886356441	0.05278983572752091	-0.8684264826407028
37984	759	779900000	0.003846597189624005	0.00020821490288543644	-0.9986481884623281	0.051835856484924656	0.000744060581525608	-7.284383966684925e-05	-0.10146427134997289	-0.07841416742455903	-0.009935846011721827	9.800550938358343	-0.4906260583300183	0.05178137988442404	-0.8332137432357005
37985	759	799900000	0.0038473069493556245	0.0002042060302858705	-0.9987002025508944	0.050823832538852504	0.0007943924297735011	5.1163823380487745e-05	-0.10133366803900307	-0.07650736379866038	-0.009888130447876576	9.800223224836872	-0.4907290905207858	0.05077311662781968	-0.8420823199272653
37986	759	819900000	0.0038478853358926315	0.00020026939708640753	-0.9987512413538213	0.04981075752095482	0.0007868946532317988	3.8807411835401464e-05	-0.10143371236505638	-0.07518873632215875	-0.009889250234748717	9.799667108606446	-0.4908303937582753	0.04976379473149562	-0.8615175200957121
37987	759	839900000	0.0038482744598198003	0.00019640854552619894	-0.9988012936493816	0.0487968032937294	0.0007787017728870552	2.0679460757708296e-05	-0.10151664262075726	-0.07517964585513655	-0.009907336922013076	9.799600467783309	-0.49093004558766856	0.04875359733352019	-0.8982623840418946
37988	759	859900000	0.003848606696978627	0.0001925696689235866	-0.998850345217559	0.04778220382295142	0.0007764579738953594	1.5502613352462415e-05	-0.10157621597918502	-0.07529387610823915	-0.009918751380384045	9.799651841546394	-0.4910277931674788	0.04774265357619506	-0.8567271452082523
37989	759	879900000	0.0038489270196889096	0.00018873513565362336	-0.9988983896563782	0.046767053378851016	0.0007761598640846867	1.4731506077045128e-05	-0.10162643963505266	-0.07534927273788751	-0.009919985569703428	9.799687843369853	-0.49112354715692197	0.04673102516697519	-0.8835423913153119
37990	759	899900000	0.003849252645010352	0.00018491260406471266	-0.9989454216741348	0.045751432520619695	0.0007751477678654746	1.5715863396417716e-05	-0.10166869898063792	-0.07540388755548641	-0.00993005223725468	9.799698087558046	-0.49121726632597323	0.04571880666529396	-0.8701666386344503
37991	759	919900000	0.003849574492516305	0.00018109363324023502	-0.9989914298396	0.04473556849257876	0.000774849452645465	1.5753374390338287e-05	-0.10168830748086134	-0.07552229751246486	-0.00993336967031945	9.799698319543118	-0.49130894397148767	0.044706212190331766	-0.872487458381261
37992	759	939900000	0.00384989266024614	0.0001772888897730786	-0.9990364014888853	0.0437197369078673	0.0007733804299647845	1.5847841914865605e-05	-0.10168043504988886	-0.07557149826994672	-0.009937875827905958	9.799691701494657	-0.4913985535501927	0.043693536273592265	-0.8419046872020808
37993	759	959900000	0.003850208906743455	0.000173494975594552	-0.9990803231846774	0.04270425758713549	0.0007721359124972981	1.610122477766523e-05	-0.10164065642850573	-0.07563579987650669	-0.009934808716960357	9.799682225639229	-0.49148606521106114	0.04268109287540904	-0.8903295316624096
37994	759	979900000	0.0038505385364661815	0.0001697188117852276	-0.9991231913709231	0.04168924337627207	0.00077022230454625	1.7911672193648605e-05	-0.10158969582893021	-0.075690683492417	-0.00993246120302141	9.799675148027566	-0.4915714446458124	0.04166900799964619	-0.8801055103789582
37995	759	999900000	0.003850883667923661	0.00016597354754985743	-0.999165003876103	0.040674785519101836	0.0007669675384414294	1.9986356500167103e-05	-0.10152971981348742	-0.07573482382475381	-0.009934546036874662	9.799675228952001	-0.49165468274517493	0.04065739813628831	-0.8609116211887216
37996	760	19900000	0.003851269515683569	0.00016226738383637367	-0.9992057583352915	0.03966098715374041	0.0007629548394390214	2.461012365004549e-05	-0.10145953644981655	-0.07579909872352528	-0.00993182157894727	9.799667357420027	-0.4917357304776103	0.03964638144627941	-0.8780520064627949
37997	760	39900000	0.0038517142898185173	0.0001586204806250974	-0.9992454511160779	0.03864799555473451	0.0007569392675491739	3.1128904870168396e-05	-0.10137473500448091	-0.07589155407369017	-0.009924734313290244	9.799649773557393	-0.49181454766004895	0.038636141262435	-0.870857254419612
37998	760	59900000	0.003852260284380804	0.00015507032036134904	-0.9992840749092946	0.0376360688246352	0.0007472363536927337	4.20120564374399e-05	-0.10126423262170284	-0.07606894916508469	-0.009918403645096522	9.799629757371816	-0.491891044092686	0.03762699943483786	-0.8661927048796536
37999	760	79900000	0.003852985134600864	0.00015168835805609462	-0.9993216122380635	0.0366257670242164	0.0007304589257274997	6.0911188233378734e-05	-0.10109782891173304	-0.0764704523631154	-0.009972834800506059	9.799585575312571	-0.49196504618807974	0.036619634239972165	-0.8851645747985798
38000	760	99900000	0.0038540485067479436	0.00014862610699594396	-0.9993580157779625	0.03561854181071536	0.0006985467439153198	9.630156785228275e-05	-0.10078634425493745	-0.07755773802988997	-0.009932711274907621	9.7994988970799	-0.4920361742585007	0.035615742492196796	-0.8605788641183618
38001	760	119900000	0.003854756852433684	0.00014521319942359279	-0.9993930016349818	0.03462294103274336	0.0007278241486389695	5.994633247611668e-05	-0.09961946690655867	-0.08862712460274363	-0.009750169343777397	9.800584700825938	-0.49210510254519857	0.03462268396468096	-0.8814094650746875
38002	760	139900000	0.0038554676061666104	0.0001416745290379987	-0.9994247342436279	0.03369444879975851	0.0007144851622135309	6.003110540126701e-05	-0.09290137056890366	-0.12198541012821644	-0.008905142710831612	9.799440350127917	-0.4921675270603484	0.03369585107151465	-0.8822995581825149
38003	760	159900000	0.0038559256914144665	0.0001384423889346993	-0.9994508507034918	0.03291063200295369	0.0006271396642195857	3.592722952047048e-05	-0.07842334275439873	-0.15642470579097328	-0.007975141555736965	9.799573006003968	-0.4922191388956778	0.032912951652104144	-0.8696207171091223
38004	760	179900000	0.0038472726478304734	0.00012944138417749846	-0.9994701262441095	0.03232102231807273	0.0010987445055123841	-0.0008937219128178184	-0.058988679660975034	-0.1596498980493393	-0.005815744561215173	9.796359090738145	-0.4922731628749975	0.03231309782805582	-0.8806148114221192
38005	760	199900000	0.0038478588579960436	0.0001274063684512987	-0.9994845089287157	0.03187309463090179	0.00037780461191712204	5.227720480698258e-05	-0.04481473152638092	-0.11701431157764595	-0.004423734905805172	9.801946664799127	-0.492301014792165	0.03186529092387335	-0.8716786116937825
38006	760	219900000	0.0038469310574318414	0.00012592867263129087	-0.9994966066423852	0.03149156353320948	0.0002916981418118092	-9.723618573234406e-05	-0.03817144551431299	-0.09111660945462915	-0.0036046522851839805	9.79976145641226	-0.4923268878752787	0.03148436958122944	-0.8695810826194355
38007	760	239900000	0.003846745693758941	0.00012447509392936914	-0.9995084244378465	0.03111424965015644	0.0002899998352269218	-2.2899344153536414e-05	-0.03774905472028946	-0.06373918066651524	-0.0034199806604816828	9.799419166436579	-0.4923509141356828	0.031107617927649274	-0.8431970556504068
38008	760	259900000	0.0038466164501140066	0.0001227955848753556	-0.9995219058033638	0.03067814013824301	0.00033539427175320304	-1.7901139391293013e-05	-0.043630816306498656	-0.03546228962198454	-0.003986026990417099	9.800100222525728	-0.4923781805719381	0.030672137765596956	-0.8934251710137556
38009	760	279900000	0.0038464044329734087	0.00012066110522611373	-0.9995388353435853	0.030121541358718532	0.00042700559884666496	-2.7417123152629715e-05	-0.05568438837396433	-0.008366351728449878	-0.004921207894603055	9.800241979598347	-0.49241250723510505	0.030116334499197397	-0.8867557837586213
38010	760	299900000	0.0038462712846982746	0.00011784212182987247	-0.9995607881125402	0.02938406333842365	0.0005652960834761866	-2.134533310181727e-05	-0.07377884128640005	0.01817882866633122	-0.0065996372443454755	9.80038675467767	-0.4924567741978522	0.02937987486952293	-0.8620072175856266
38011	760	319900000	0.0038513743279478805	0.00011685293164155456	-0.9995885211466424	0.02842431446925312	0.00048334272487338554	0.0005078166356121524	-0.09601379868042766	6.305095486194151e-05	-0.009202949939304381	9.796135057294547	-0.4925034411858053	0.028425768207371097	-0.8730055087757266
38012	760	339900000	0.0038504088872320552	0.00011264090798606586	-0.9996165328752656	0.027421686050642154	0.0008047620461638247	-0.00010754911052838974	-0.10029961314910163	-0.07833180385985501	-0.009762274833103492	9.80158237873172	-0.4925613290802118	0.02742375133912019	-0.858737707126464
38013	760	359900000	0.0038505467234973183	0.00010887658740406111	-0.9996435443278797	0.026418662332019338	0.0007631752106771925	4.35357648916475e-06	-0.10033654502030522	-0.07708184164525023	-0.009765118798442784	9.800786527280238	-0.4926152803079268	0.02642198193605163	-0.8586400584620391
38014	760	379900000	0.0038508275983857813	0.00010513239309283635	-0.9996695373733678	0.025416060310449344	0.0007613677249626497	1.9093064628701843e-05	-0.10029170601441337	-0.07597143020966486	-0.00975725403635367	9.80017073457016	-0.4926669419542241	0.025420579792568614	-0.8615700525771761
38015	760	399900000	0.003851046295115033	0.00010134426417162159	-0.9996945158620275	0.02441381017292415	0.0007654555316715257	1.315262690136476e-05	-0.10025393436902841	-0.07548024845642301	-0.009754561383719875	9.799899600494792	-0.49271667967306504	0.02441937702639651	-0.8631384783682576
38016	760	419900000	0.0038512232190370203	9.75241830564083e-05	-0.9997184873830016	0.023411632864759353	0.000768509539965269	9.285663970920115e-06	-0.10024418335322306	-0.07533542527549275	-0.009746872743941936	9.79979320654506	-0.4927644724545522	0.02341811943842181	-0.8611103201473493
38017	760	439900000	0.003851382896537458	9.36906864544294e-05	-0.9997414535960537	0.022409463034380423	0.0007697976506928052	7.917192847430596e-06	-0.10024107722655107	-0.07527386014441007	-0.009745305055202366	9.79974643916034	-0.4928102801279921	0.022416776218896442	-0.8481250505607261
38018	760	459900000	0.0038515361846728	8.984921105976919e-05	-0.9997634155208145	0.021407255365711756	0.000770586169335462	7.647685826155564e-06	-0.10024260651178991	-0.07524703190357185	-0.009744492971651756	9.79972098182068	-0.4928540855262424	0.02141531437229554	-0.8581689921198181
38019	760	479900000	0.00385168781104808	8.600193209204528e-05	-0.9997843738178364	0.020404974255089824	0.0007711821008318515	7.856336036408247e-06	-0.10024779823881991	-0.07523315193436378	-0.00974389032138242	9.799706209374412	-0.49289588153490016	0.02041370516519684	-0.8488048837828546
38020	760	499900000	0.00385183912918384	8.214968189682335e-05	-0.9998043289128137	0.019402589362017324	0.0007717098336934525	8.202669671263115e-06	-0.10025612532357055	-0.07522647581057582	-0.009743190709638657	9.799696240602206	-0.4929356664781284	0.019411922896977407	-0.8926948298739182
38021	760	519900000	0.003851989812731273	7.828955918033937e-05	-0.9998232810677539	0.018400072829716757	0.0007725381666748791	8.511346355846314e-06	-0.10026733766013499	-0.07523144763967099	-0.00973643349545275	9.79969878739345	-0.49297344139189236	0.018409937910007983	-0.8784373157636003
38022	760	539900000	0.0038521165443068423	7.442362866233554e-05	-0.9998412303082859	0.017397408854933835	0.0007731237155707998	6.493361641616002e-06	-0.10028023190651263	-0.07521938681437862	-0.009740538536324082	9.799729518872967	-0.4930092464912124	0.017407741818960695	-0.8863549328169584
38023	760	559900000	0.003852243938670589	7.055794196161636e-05	-0.9998581770998552	0.016394539480219836	0.0007731721526817916	6.947737875733756e-06	-0.100299024732069	-0.07526725480053967	-0.00974318745765399	9.79972311193562	-0.4930430397736656	0.016405289779315577	-0.8691416904515972
38024	760	579900000	0.003852365416399138	6.669544593575243e-05	-0.9998741230007352	0.015391328270380544	0.000772968051687385	6.749368627636932e-06	-0.1003315637814404	-0.07529091317410912	-0.009754267355478203	9.799709460024255	-0.49307483557287946	0.015402454626630122	-0.870496855676405
38025	760	599900000	0.0038524828247171413	6.283342197844478e-05	-0.9998890682923568	0.01438768700970413	0.0007730735849554031	6.731544862796493e-06	-0.10037302357615517	-0.07529733055533776	-0.009760322859477122	9.799702341137522	-0.49310463124270953	0.014399146968819193	-0.8874431756329662
38026	760	619900000	0.0038525988919444376	5.8973916755128936e-05	-0.9999030149145394	0.013383376579536487	0.0007730713317115303	6.990014897964873e-06	-0.10043849727891277	-0.07528427252502345	-0.00976747337115613	9.799694810137796	-0.4931324258065879	0.013395135814259326	-0.8660326171338601
38027	760	639900000	0.003852715824197186	5.511496283919938e-05	-0.9999159617192227	0.012378329541621875	0.0007732952533693449	7.466780614677978e-06	-0.1005108130632388	-0.07529389711726614	-0.009773677230895858	9.799688520280757	-0.4931582131206633	0.012390353698465945	-0.882799772064943
38028	760	659900000	0.0038528342319116803	5.125721691727638e-05	-0.9999279070047855	0.011372503423088806	0.000773470928568771	8.00596053467724e-06	-0.10058747537231683	-0.07531359636120596	-0.009782836575774846	9.799678523021257	-0.49318198863794527	0.011384762554451922	-0.8681917117437015
38029	760	679900000	0.0038529570980608053	4.739795136056423e-05	-0.9999388488319053	0.010365860878804692	0.0007739373635389064	8.840844468085581e-06	-0.10066797030315225	-0.07533089356998104	-0.009820391303743957	9.79967107892381	-0.4932037432978154	0.010378323502770051	-0.8529751157761806
38030	760	699900000	0.003853082795090968	4.3532464056813866e-05	-0.9999487851970352	0.009358356739956665	0.000774889638036444	9.508949972707273e-06	-0.1007530798755505	-0.07535266192708576	-0.009814342718944512	9.799669663212391	-0.49322347591505517	0.00937098657117532	-0.8788835500822176
38031	760	719900000	0.00385321537631457	3.966467550950692e-05	-0.9999577138423308	0.008349951209232185	0.0007754691202693776	1.0587387435137404e-05	-0.10084227050981909	-0.07537214056394177	-0.009813121991970307	9.79966245030333	-0.49324117480616714	0.008362722006065519	-0.840741156984575
38032	760	739900000	0.00385336185821213	3.5790511830574364e-05	-0.999965632356806	0.007340601248007751	0.00077647811655965	1.2365044364207272e-05	-0.10093586363672162	-0.0753972262979003	-0.009828052889330953	9.799653482152008	-0.4932568229833955	0.007353482960286369	-0.8589067967831563
38033	760	759900000	0.0038535296005590045	3.1903062605915944e-05	-0.9999725382058365	0.006330254812335914	0.0007782025858594935	1.4875047345050971e-05	-0.10103475916810088	-0.0754570137884219	-0.009835780860799732	9.799648742492609	-0.4932704026255018	0.006343208776375807	-0.8770016172025217
38034	760	779900000	0.0038537322075738348	2.798594938774014e-05	-0.999978428403984	0.005318899468613353	0.0007815765204290284	1.8737243799137064e-05	-0.10113499279829051	-0.07561361924715507	-0.009842941303519013	9.799646244426837	-0.4932818842381431	0.005331861713200235	-0.8587600111685578
38035	760	799900000	0.003854007092809057	2.401245385534938e-05	-0.9999833013268575	0.004306172333995243	0.0007877788799594383	2.6330791771129824e-05	-0.10127160595365427	-0.07588470226087585	-0.00985550203762461	9.799630610593523	-0.4932911997838285	0.004319037918756204	-0.9012730982704965
38036	760	819900000	0.0038544228448370277	1.9932121502657238e-05	-0.9999871574010274	0.0032906018076719226	0.0007996164497565558	4.076995445110924e-05	-0.10155546116618439	-0.0768227031060118	-0.009866722451717904	9.799608535390526	-0.4932982312981597	0.003303191135787948	-0.8651957009669833
38037	760	839900000	0.003854972387484086	1.577893695548759e-05	-0.999990000974492	0.002266470814417331	0.0008102431525350515	5.453219770194404e-05	-0.10241113575703722	-0.080472284165411	-0.009811415088280583	9.79966442858816	-0.4933029990821482	0.0022787053826646116	-0.852285579850724
38038	760	859900000	0.0038544757471186105	1.2403224334046183e-05	-0.9999918306807495	0.001217141995995687	0.0007419717099572253	-4.947826183186163e-05	-0.10493096602541736	-0.08764909363852	-0.010252166996555089	9.800355993747827	-0.4933075421432287	0.0012305368800281274	-0.8660573419352713
38039	760	879900000	0.0038504214874644886	1.1215661884198998e-05	-0.999992576492045	0.0001452218281106784	0.0005314318696834007	-0.000404525218571901	-0.10719079969379146	-0.07230284183713503	-0.01058396376405911	9.79959035074201	-0.49331607420536033	0.00016372138447662935	-0.856952022601303
38040	760	899900000	0.0038522036514165663	6.171848962157329e-06	-0.9999921962423969	-0.0008763237096816346	0.0008977412473163323	0.00017943399930866043	-0.10215186358821886	-0.05000273544749424	-0.010000076129323491	9.797944650419577	-0.4933122415746186	-0.0008597562053255436	-0.8603741427444156
38041	760	919900000	0.0038546601980161983	9.549733483444805e-07	-0.9999908047780868	-0.001879349121465113	0.000907853326129561	0.0002472650241156425	-0.10029988604129546	-0.09179332744157884	-0.009774606262259298	9.80228519378197	-0.4933052068329191	-0.0018651266992139666	-0.8715191006530401
38042	760	939900000	0.0038540897195765496	-2.46839189925418e-06	-0.9999883743108463	-0.002897797351676601	0.0007350176703452016	-5.5369837496693494e-05	-0.1018430413737728	-0.06379311105549336	-0.00991047100523106	9.797163070587224	-0.49330133476956756	-0.0028827043206879717	-0.8784866367859481
38043	760	959900000	0.003853149448090252	-5.701193949134384e-06	-0.9999849143544863	-0.00391462262262897	0.0007154434780905933	-9.200676495498088e-05	-0.10168111895231381	-0.08111671279961652	-0.010006823356346397	9.800882619901287	-0.49329604037919994	-0.0038983345375980284	-0.8475462778805073
38044	760	979900000	0.0038540324784670584	-9.904824417697467e-06	-0.999980431071215	-0.0049278606084459785	0.0008104294655618707	9.109709326723558e-05	-0.10132242319702536	-0.07712172541211373	-0.009909609174458161	9.80018867474396	-0.4932855286460935	-0.004912062329944076	-0.8611621675858546
38045	760	999900000	0.003854477965248127	-1.3833450638674869e-05	-0.9999749175868299	-0.005941969830287858	0.0007834819875491568	4.760424414459094e-05	-0.10141015836187456	-0.07505416006942964	-0.009901561759808114	9.799456387667846	-0.4932737094046623	-0.005926164258625549	-0.8900891922090763
38046	761	19900000	0.003854672526530237	-1.757856127871003e-05	-0.9999683763803253	-0.006956107388721894	0.0007652923298666966	2.2799369005126012e-05	-0.10141367301934939	-0.07549926005006259	-0.00991447065087875	9.799524484330547	-0.49326026474962564	-0.006939958797324335	-0.8616986238896929
38047	761	39900000	0.0038548958853149504	-2.1259376698364224e-05	-0.9999608103802734	-0.00796975717190911	0.000758656758026201	2.6030186090805112e-05	-0.10136563469492647	-0.07586686142335687	-0.009917250693167873	9.79961398763517	-0.4932447154163401	-0.007953134593714908	-0.8609037126522455
38048	761	59900000	0.003855227112691661	-2.4867944270249592e-05	-0.9999522228631204	-0.00898268315146385	0.0007510694391886147	3.715436764197315e-05	-0.10129409933789905	-0.07608265115448237	-0.009931728821500589	9.799627964721042	-0.4932269315158112	-0.008965438930499347	-0.8796825323253398
38049	761	79900000	0.003855725256974284	-2.834039782217254e-05	-0.9999426198997773	-0.0099944728492507	0.0007368732113653608	5.4117299984706445e-05	-0.1011814415594983	-0.07639323269060692	-0.009961073136919879	9.799606002308357	-0.49320682445353886	-0.009976346622088201	-0.8881508309756052
38050	761	99900000	0.0038565186656349918	-3.1568716825974494e-05	-0.9999320161078207	-0.011004064237678805	0.000711321280040616	8.379017106398413e-05	-0.10096271837068645	-0.07724850831315391	-0.009929413881800355	9.799531503277988	-0.4931842039888252	-0.010984609091320652	-0.8672029920376298
38051	761	119900000	0.0038574116787233907	-3.4907145132280586e-05	-0.9999204654522066	-0.012007577877103716	0.0007198809503870329	9.4255449682244e-05	-0.10035598428778388	-0.08167714346398244	-0.009771781596354886	9.800864842706671	-0.49315951083470155	-0.011986988225516755	-0.8491637269284126
38052	761	139900000	0.003857841607663755	-3.843931929457971e-05	-0.9999084871739783	-0.012966605492385727	0.0007226514385479138	4.8503591099226186e-05	-0.09590817064894598	-0.11180021166228966	-0.009610748038657834	9.79934217181936	-0.4931347547130342	-0.012945497367303943	-0.88560981478478
38053	761	159900000	0.0038582929901897246	-4.165859668950379e-05	-0.9998972630337751	-0.013804898309247401	0.0006447563003131619	5.041619275745091e-05	-0.08383493374921439	-0.14624666743749842	-0.00812502476823223	9.799114592969262	-0.4931114693450539	-0.013783533344842384	-0.8802411071758617
38054	761	179900000	0.0038484179613899007	-5.15045965619353e-05	-0.9998880906855923	-0.0144565947439953	0.0012496130862748962	-0.0009729851077445247	-0.06517177503747106	-0.16140299360224894	-0.007429551369352208	9.802174979488564	-0.49310999740638384	-0.014448011043032475	-0.8663960322272671
38055	761	199900000	0.0038485347762947895	-5.279273421631139e-05	-0.9998809341195817	-0.014943345581084358	0.000315989413964815	1.3789547341525168e-05	-0.048679489275299324	-0.1314507812248468	-0.0038878060452431336	9.796013392645767	-0.4930954546968996	-0.014933588107534717	-0.8666293921524265
