sequence	time_seconds	time_nseconds	orientation_x	orientation_y	orientation_z	orientation_w	angular_velocity_x	angular_velocity_y	angular_velocity_z	linear_acceleration_x	linear_acceleration_y	linear_acceleration_z	mag_x	mag_y	mag_z
4814	96	380000000	-2.5455913263114752e-20	6.153575052119279e-20	-5.3309976078203784e-18	1.0	0.0	0.0	0.0	1.244216816988451e-14	5.272465944617616e-15	9.8	0.5000000000000001	5.283526378506842e-18	-0.8557367984640525
4815	96	400000000	-2.531451166846411e-20	6.215123448982436e-20	-5.333083563894767e-18	1.0	0.0	0.0	0.0	-4.377104951477505e-17	-4.571491000868931e-18	9.8	0.5000000000000001	5.2875469152788594e-18	-0.8337037548360602
4816	96	420000000	-2.5034166907677587e-20	6.2659881160263e-20	-5.3351704713511755e-18	1.0	0.0	0.0	0.0	1.1368065814869416e-16	-3.830030160795877e-17	9.8	0.5000000000000001	5.287724180223016e-18	-0.8590968063660022
4817	96	440000000	-2.4807155815696005e-20	6.12635110354125e-20	-5.337256358082075e-18	1.0	0.0	0.0	0.0	-1.145581805497201e-16	-4.703438195770069e-18	9.8	0.5000000000000001	5.2916058111880026e-18	-0.8678922413397779
4818	96	460000000	-2.5541372110921082e-20	6.205843367562785e-20	-5.339343673181922e-18	1.0	0.0	0.0	0.0	1.2491077551495321e-16	6.28217032436417e-17	9.8	0.5000000000000001	5.294193950791613e-18	-0.8344302602271321
4819	96	480000000	-2.704282386437143e-20	6.321411965742132e-20	-5.34143031237651e-18	1.0	0.0	0.0	0.0	-1.7002060040778394e-17	-1.9325013356245554e-17	9.8	0.5000000000000001	5.295246010896344e-18	-0.8625994345181431
4820	96	500000000	-2.7594888728306976e-20	6.292265455432511e-20	-5.3435165349438354e-18	1.0	0.0	0.0	0.0	-7.441674457246291e-17	-3.8707082813486593e-17	9.8	0.5000000000000001	5.297320956674009e-18	-0.8634750763566921
4821	96	520000000	-2.6315202712599994e-20	6.202337473555398e-20	-5.345602599771472e-18	1.0	0.0	0.0	0.0	3.317423007748019e-17	3.1487044358875446e-17	9.8	0.5000000000000001	5.296901498231305e-18	-0.8525529918105825
4822	96	540000000	-2.5416513293412217e-20	6.219020920143137e-20	-5.34768880343728e-18	1.0	0.0	0.0	0.0	4.251518149431137e-17	2.2280997361405213e-17	9.8	0.5000000000000001	5.3030403910661865e-18	-0.8640887139508678
4823	96	560000000	-2.5992523546395774e-20	6.245483533742826e-20	-5.349774780697927e-18	1.0	0.0	0.0	0.0	4.242020116992735e-17	-5.830875533114636e-17	9.8	0.5000000000000001	5.304924073635402e-18	-0.8610114622622683
4824	96	580000000	-2.6249366563912714e-20	6.197733643959721e-20	-5.351860505482526e-18	1.0	0.0	0.0	0.0	-3.65966787296829e-17	7.40694166227809e-17	9.8	0.5000000000000001	5.3048488340408e-18	-0.8711410281050046
4825	96	600000000	-2.5654972351177678e-20	6.166945448734591e-20	-5.353947090925801e-18	1.0	0.0	0.0	0.0	-4.070384956614483e-17	-8.737236190292424e-17	9.8	0.5000000000000001	5.307619183607213e-18	-0.8524924767290488
4826	96	620000000	-2.6387986336122355e-20	6.185825987993868e-20	-5.3560335766614046e-18	1.0	0.0	0.0	0.0	-5.2915339976456736e-17	5.938492659969227e-17	9.8	0.5000000000000001	5.310885033674814e-18	-0.8841415548266276
4827	96	640000000	-2.5701161903159482e-20	6.179836480786921e-20	-5.358120092229061e-18	1.0	0.0	0.0	0.0	1.573595350914214e-17	-4.488793052837078e-17	9.8	0.5000000000000001	5.3139715033360046e-18	-0.846283136419358
4828	96	660000000	-2.6891577881801412e-20	6.346090853631188e-20	-5.360206477456386e-18	1.0	0.0	0.0	0.0	9.182430130250882e-17	6.032953851661121e-17	9.8	0.5000000000000001	5.312725866032542e-18	-0.8910283885917106
4829	96	680000000	-2.5827840319015085e-20	6.298071600348611e-20	-5.362292968166718e-18	1.0	0.0	0.0	0.0	8.43426541480129e-19	-2.6484567454151458e-17	9.8	0.5000000000000001	5.31743612914013e-18	-0.8399469848728841
4830	96	700000000	-2.6336937041549294e-20	6.340587540164753e-20	-5.3643801568484175e-18	1.0	0.0	0.0	0.0	-6.796997185813354e-17	6.4791472852864294e-18	9.8	0.5000000000000001	5.320177805426501e-18	-0.9028618388059453
4831	96	720000000	-2.663625273832462e-20	6.331466165054642e-20	-5.366466854674887e-18	1.0	0.0	0.0	0.0	1.5399696657287203e-16	1.6322473875761818e-17	9.8	0.5000000000000001	5.321298305274298e-18	-0.8796843607100494
4832	96	740000000	-2.5775173524239962e-20	6.327526922626047e-20	-5.368552731047306e-18	1.0	0.0	0.0	0.0	-4.74341194932042e-17	2.012668708886446e-17	9.8	0.5000000000000001	5.31941942681062e-18	-0.8712390547075559
4833	96	760000000	-2.683840805508896e-20	6.258993341988609e-20	-5.3706400698388615e-18	1.0	0.0	0.0	0.0	-1.0746298682181747e-16	-5.651974885168713e-17	9.8	0.5000000000000001	5.323775339391191e-18	-0.8772134383705749
4834	96	780000000	-2.6402778529477884e-20	6.254806420817253e-20	-5.37272693442142e-18	1.0	0.0	0.0	0.0	8.490300356467992e-17	4.9348670841227054e-17	9.8	0.5000000000000001	5.329035523283742e-18	-0.8725973557344123
4835	96	800000000	-2.6268840361245147e-20	6.332017836249954e-20	-5.374812903694548e-18	1.0	0.0	0.0	0.0	-3.5054194142737305e-17	-1.786498171155441e-17	9.8	0.5000000000000001	5.32688399520353e-18	-0.8686284195834715
4836	96	820000000	-2.736449050755999e-20	6.344358145361073e-20	-5.3768992704259156e-18	1.0	0.0	0.0	0.0	-4.932902255280266e-17	2.0661107555296404e-17	9.8	0.5000000000000001	5.332102559710614e-18	-0.8797685209086415
4837	96	840000000	-2.658299235697128e-20	6.197103761680865e-20	-5.37898529268323e-18	1.0	0.0	0.0	0.0	-7.219051494796035e-17	-5.962055727026441e-17	9.8	0.5000000000000001	5.3349828228011296e-18	-0.8668333814082937
4838	96	860000000	-2.46907105147922e-20	6.253198341792339e-20	-5.3810709007901456e-18	1.0	0.0	0.0	0.0	1.7367982248704742e-16	-7.404018077332801e-17	9.8	0.5000000000000001	5.334748523418515e-18	-0.8736283939295848
4839	96	880000000	-2.467388952044265e-20	6.081642671677039e-20	-5.3831577410653754e-18	1.0	0.0	0.0	0.0	-1.7293420431477265e-16	1.1900778291886218e-16	9.8	0.5000000000000001	5.339789865530395e-18	-0.8713995967321584
4840	96	900000000	-2.433986826488819e-20	6.243970877749609e-20	-5.3852433622784175e-18	1.0	0.0	0.0	0.0	9.715709394392244e-17	-9.134933809667052e-17	9.8	0.5000000000000001	5.339612442290547e-18	-0.8601685616353705
4841	96	920000000	-2.7197158156994524e-20	6.20994325245297e-20	-5.3873294838290564e-18	1.0	0.0	0.0	0.0	-4.9842277284834166e-17	5.174558219500341e-17	9.8	0.5000000000000001	5.340985405621487e-18	-0.8782780895156541
4842	96	940000000	-2.6546322696766634e-20	6.334290345624917e-20	-5.389416719398481e-18	1.0	0.0	0.0	0.0	8.198025158236399e-17	-4.235712483839537e-17	9.8	0.5000000000000001	5.3437388803846086e-18	-0.8661231821144035
4843	96	960000000	-2.560041282241565e-20	6.31114342196464e-20	-5.391503456746354e-18	1.0	0.0	0.0	0.0	2.56202394593362e-17	4.9827872897490064e-17	9.8	0.5000000000000001	5.3463026758860885e-18	-0.8742886093640148
4844	96	980000000	-2.539746338586942e-20	6.313554392761976e-20	-5.393589865789854e-18	1.0	0.0	0.0	0.0	-1.5274795770591638e-17	-5.594373837532679e-17	9.8	0.5000000000000001	5.347935987199587e-18	-0.8503228338481382
4845	97	0	-2.6472385267729337e-20	6.216007385049093e-20	-5.39567695670337e-18	1.0	0.0	0.0	0.0	-3.825433684368653e-18	7.372352425858254e-17	9.8	0.5000000000000001	5.349304787639294e-18	-0.8720417081727967
4846	97	20000000	-2.5627659792369127e-20	6.252975694534277e-20	-5.397763478692569e-18	1.0	0.0	0.0	0.0	-2.6005101918624825e-17	8.5489145878783e-18	9.8	0.5000000000000001	5.351114878559596e-18	-0.8495656592014259
4847	97	40000000	-2.6899774486356704e-20	6.273278353943868e-20	-5.3998505650497795e-18	1.0	0.0	0.0	0.0	3.7498951112015e-17	9.011891138873789e-18	9.8	0.5000000000000001	5.354339569593402e-18	-0.8567798837903752
4848	97	60000000	-2.6800479772879245e-20	6.345910742693338e-20	-5.401936673426442e-18	1.0	0.0	0.0	0.0	-2.3629322743685562e-17	6.085002013948795e-17	9.8	0.5000000000000001	5.355081160632667e-18	-0.8551469841863555
4849	97	80000000	-2.5433351299165617e-20	6.229499244713294e-20	-5.404023410853451e-18	1.0	0.0	0.0	0.0	-2.0744210800754862e-17	-4.160419845339722e-17	9.8	0.5000000000000001	5.360497345998452e-18	-0.8809076401491658
4850	97	100000000	-2.5754766960301725e-20	6.242539077988513e-20	-5.4061100475297745e-18	1.0	0.0	0.0	0.0	-7.157369431504398e-17	-1.2841889307948075e-16	9.8	0.5000000000000001	5.360459732196391e-18	-0.8805175977004784
4851	97	120000000	-2.595273200422013e-20	6.218772731032607e-20	-5.4081986188125236e-18	1.0	0.0	0.0	0.0	2.0230708785772716e-17	4.810893223903567e-17	9.8	0.5000000000000001	5.3640706764930386e-18	-0.8614366750929512
4852	97	140000000	-2.631681584681282e-20	6.410092203235975e-20	-5.4102849924726014e-18	1.0	0.0	0.0	0.0	-3.0038287378916683e-17	7.023573635086852e-18	9.8	0.5000000000000001	5.3635736305954494e-18	-0.8600721450763722
4853	97	160000000	-2.498053991004581e-20	6.26789062893095e-20	-5.412371700563308e-18	1.0	0.0	0.0	0.0	1.0196564946557903e-17	-3.6876968648102613e-17	9.8	0.5000000000000001	5.366527869112433e-18	-0.8899210674306798
4854	97	180000000	-2.5849955634212528e-20	6.298554065529335e-20	-5.414457212916379e-18	1.0	0.0	0.0	0.0	1.521343293344838e-17	6.138063273246134e-17	9.8	0.5000000000000001	5.369453972552141e-18	-0.8673362995657377
4855	97	200000000	-2.7242193771756047e-20	6.256591938484894e-20	-5.4165428320317234e-18	1.0	0.0	0.0	0.0	5.735112971259498e-18	5.371742590136679e-17	9.8	0.5000000000000001	5.36924359357281e-18	-0.8567222362259502
4856	97	220000000	-2.526418619354232e-20	6.371164454606559e-20	-5.418628795128888e-18	1.0	0.0	0.0	0.0	5.643864715473085e-17	-9.437408226450844e-17	9.8	0.5000000000000001	5.373303790917384e-18	-0.8858004991255501
4857	97	240000000	-2.719323461886425e-20	6.381637565831443e-20	-5.420716333877999e-18	1.0	0.0	0.0	0.0	1.292717603559023e-16	1.0508820226430961e-16	9.8	0.5000000000000001	5.375973597832675e-18	-0.8671945824958098
4858	97	260000000	-2.601187946191865e-20	6.336084076414965e-20	-5.4228032836642845e-18	1.0	0.0	0.0	0.0	-6.02758392308544e-17	-3.867189967705484e-17	9.8	0.5000000000000001	5.3792408213827395e-18	-0.8985171891837761
4859	97	280000000	-2.6152798439033e-20	6.314167179648189e-20	-5.424890254803961e-18	1.0	0.0	0.0	0.0	-3.1223264229549206e-17	-2.582790228380626e-17	9.8	0.5000000000000001	5.3799835330246744e-18	-0.8578405054002299
4860	97	300000000	-2.560339852604583e-20	6.312742423067411e-20	-5.426977471487474e-18	1.0	0.0	0.0	0.0	-1.1182534282571942e-16	-9.168184255614567e-17	9.8	0.5000000000000001	5.379605152637634e-18	-0.8866623946346679
4861	97	320000000	-2.57051346832049e-20	6.238828417536705e-20	-5.429063245218342e-18	1.0	0.0	0.0	0.0	-6.934531952562381e-17	7.193402254593604e-17	9.8	0.5000000000000001	5.383696727685894e-18	-0.8600833628838856
4862	97	340000000	-2.479743064718334e-20	6.139260712374341e-20	-5.4311493057851954e-18	1.0	0.0	0.0	0.0	-3.14371988094499e-17	-4.36766565759104e-17	9.8	0.5000000000000001	5.386240323428095e-18	-0.8371608806478489
4863	97	360000000	-2.5679965107033277e-20	6.057642388742712e-20	-5.4332355210670506e-18	1.0	0.0	0.0	0.0	4.94242252052773e-17	3.80478210207114e-17	9.8	0.5000000000000001	5.386378349606401e-18	-0.8914146737346859
4864	97	380000000	-2.6659078482561116e-20	6.22109645877601e-20	-5.4336528910547064e-18	1.0	0.0	0.0	0.0	-6.188548907222986e-15	-2.587129240060927e-15	9.799999999998304	0.5000000000000001	5.47982776946947e-18	-0.8754416683810995
4865	97	400000000	-2.6659078482561116e-20	6.22109645877601e-20	-5.4336528910547064e-18	1.0	0.0	0.0	0.0	-1.2193349059200981e-18	-5.225179382581979e-19	9.8	0.5000000000000001	5.47982776946947e-18	-0.8563158889296721
4866	97	420000000	-2.6659078482561116e-20	6.22109645877601e-20	-5.4336528910547064e-18	1.0	0.0	0.0	0.0	-1.2193349059200981e-18	-5.225179382581979e-19	9.8	0.5000000000000001	5.47982776946947e-18	-0.8835180711672571
4867	97	440000000	-2.6659078482561116e-20	6.22109645877601e-20	-5.4336528910547064e-18	1.0	0.0	0.0	0.0	-1.2193349059200981e-18	-5.225179382581979e-19	9.8	0.5000000000000001	5.47982776946947e-18	-0.8846468375803338
4868	97	460000000	-2.6659078482561116e-20	6.22109645877601e-20	-5.4336528910547064e-18	1.0	0.0	0.0	0.0	-1.2193349059200981e-18	-5.225179382581979e-19	9.8	0.5000000000000001	5.47982776946947e-18	-0.8963513256750082
4869	97	480000000	-2.6659078482561116e-20	6.22109645877601e-20	-5.4336528910547064e-18	1.0	0.0	0.0	0.0	-1.2193349059200981e-18	-5.225179382581979e-19	9.8	0.5000000000000001	5.47982776946947e-18	-0.8721554718093473
4870	97	500000000	-2.6659078482561116e-20	6.22109645877601e-20	-5.4336528910547064e-18	1.0	0.0	0.0	0.0	-1.2193349059200981e-18	-5.225179382581979e-19	9.8	0.5000000000000001	5.47982776946947e-18	-0.8634983469869933
4871	97	520000000	-2.6659078482561116e-20	6.22109645877601e-20	-5.4336528910547064e-18	1.0	0.0	0.0	0.0	-1.2193349059200981e-18	-5.225179382581979e-19	9.8	0.5000000000000001	5.47982776946947e-18	-0.8705270470619115
4872	97	540000000	-2.6659078482561116e-20	6.22109645877601e-20	-5.4336528910547064e-18	1.0	0.0	0.0	0.0	-1.2193349059200981e-18	-5.225179382581979e-19	9.8	0.5000000000000001	5.47982776946947e-18	-0.8816174845439682
4873	97	560000000	-2.6659078482561116e-20	6.22109645877601e-20	-5.4336528910547064e-18	1.0	0.0	0.0	0.0	-1.2193349059200981e-18	-5.225179382581979e-19	9.8	0.5000000000000001	5.47982776946947e-18	-0.842991489733599
4874	97	580000000	-2.6659078482561116e-20	6.22109645877601e-20	-5.4336528910547064e-18	1.0	0.0	0.0	0.0	-1.2193349059200981e-18	-5.225179382581979e-19	9.8	0.5000000000000001	5.47982776946947e-18	-0.8664193211612545
4875	97	600000000	-2.6659078482561116e-20	6.22109645877601e-20	-5.4336528910547064e-18	1.0	0.0	0.0	0.0	-1.2193349059200981e-18	-5.225179382581979e-19	9.8	0.5000000000000001	5.47982776946947e-18	-0.8358696485534642
4876	97	620000000	-2.6659078482561116e-20	6.22109645877601e-20	-5.4336528910547064e-18	1.0	0.0	0.0	0.0	-1.2193349059200981e-18	-5.225179382581979e-19	9.8	0.5000000000000001	5.47982776946947e-18	-0.8768855148648121
4877	97	640000000	-2.6659078482561116e-20	6.22109645877601e-20	-5.4336528910547064e-18	1.0	0.0	0.0	0.0	-1.2193349059200981e-18	-5.225179382581979e-19	9.8	0.5000000000000001	5.47982776946947e-18	-0.8616519389557715
4878	97	660000000	-2.6659078482561116e-20	6.22109645877601e-20	-5.4336528910547064e-18	1.0	0.0	0.0	0.0	-1.2193349059200981e-18	-5.225179382581979e-19	9.8	0.5000000000000001	5.47982776946947e-18	-0.869361965528888
4879	97	680000000	-2.6659078482561116e-20	6.22109645877601e-20	-5.4336528910547064e-18	1.0	0.0	0.0	0.0	-1.2193349059200981e-18	-5.225179382581979e-19	9.8	0.5000000000000001	5.47982776946947e-18	-0.8917839682649872
4880	97	700000000	-2.6659078482561116e-20	6.22109645877601e-20	-5.4336528910547064e-18	1.0	0.0	0.0	0.0	-1.2193349059200981e-18	-5.225179382581979e-19	9.8	0.5000000000000001	5.47982776946947e-18	-0.8756663972352156
4881	97	720000000	-2.6659078482561116e-20	6.22109645877601e-20	-5.4336528910547064e-18	1.0	0.0	0.0	0.0	-1.2193349059200981e-18	-5.225179382581979e-19	9.8	0.5000000000000001	5.47982776946947e-18	-0.8536829064594754
4882	97	740000000	-2.6659078482561116e-20	6.22109645877601e-20	-5.4336528910547064e-18	1.0	0.0	0.0	0.0	-1.2193349059200981e-18	-5.225179382581979e-19	9.8	0.5000000000000001	5.47982776946947e-18	-0.8516183603506654
4883	97	760000000	-2.6659078482561116e-20	6.22109645877601e-20	-5.4336528910547064e-18	1.0	0.0	0.0	0.0	-1.2193349059200981e-18	-5.225179382581979e-19	9.8	0.5000000000000001	5.47982776946947e-18	-0.8537170191497837
4884	97	780000000	-2.6659078482561116e-20	6.22109645877601e-20	-5.4336528910547064e-18	1.0	0.0	0.0	0.0	-1.2193349059200981e-18	-5.225179382581979e-19	9.8	0.5000000000000001	5.47982776946947e-18	-0.8581364120353033
4885	97	800000000	-2.6659078482561116e-20	6.22109645877601e-20	-5.4336528910547064e-18	1.0	0.0	0.0	0.0	-1.2193349059200981e-18	-5.225179382581979e-19	9.8	0.5000000000000001	5.47982776946947e-18	-0.8626282081490584
4886	97	820000000	-2.6659078482561116e-20	6.22109645877601e-20	-5.4336528910547064e-18	1.0	0.0	0.0	0.0	-1.2193349059200981e-18	-5.225179382581979e-19	9.8	0.5000000000000001	5.47982776946947e-18	-0.8769628629413123
4887	97	840000000	-9.756379649298377e-15	1.7322610637566578e-11	1.6559727226046702e-11	1.0	0.0	0.0	0.0	241.31000126981974	0.019997362183483663	10.159998738189447	0.5000000000000001	5.47982776946947e-18	-0.8586964855033778
4888	97	860000000	-9.756377372897331e-15	4.4030287903018864e-11	4.298471840793919e-11	1.0	0.0	0.0	0.0	-9.799999989214387	1.5137336767349947e-08	9.799999987488563	0.5000000000000001	5.47982776946947e-18	-0.8514443712305986
4889	97	880000000	-9.756378299339617e-15	7.091061964742239e-11	6.94066511500002e-11	1.0	0.0	0.0	0.0	-9.799999990017685	1.5659859686495958e-08	9.799999987238127	0.5000000000000001	-0.05625190388822307	-0.84036776091425
4890	97	900000000	-9.756387272594902e-15	9.806901130476611e-11	9.582364586647923e-11	1.0	0.0	0.0	0.0	-9.799999990792598	1.6182291168061262e-08	9.799999986948372	0.5000000000000001	-0.14224639761663124	-0.869167178262145
4891	97	920000000	-9.756389310767932e-15	1.2561195767794193e-10	1.2223382290306898e-10	1.0	0.0	0.0	0.0	-9.799999991608752	1.6704596469058133e-08	9.799999986684869	0.5000000000000001	-0.22681961827749322	-0.8381162859548745
4892	97	940000000	-9.756404769119219e-15	1.5364746203839532e-10	1.486353030206407e-10	1.0	0.0	0.0	0.0	-9.799999992433426	1.722673244865046e-08	9.79999998641047	0.5000000000000001	-0.30912654172415277	-0.8235906592523823
4893	97	960000000	-9.756417712841444e-15	1.8228545922284752e-10	1.750262079238456e-10	1.0	0.0	0.0	0.0	-9.799999993261295	1.7748667212127426e-08	9.799999986115758	0.5000000000000001	-0.38834478780830817	-0.7624688433975323
4894	97	980000000	-9.756431715354854e-15	2.1163824622983184e-10	2.014046603491534e-10	1.0	0.0	0.0	0.0	-9.799999994106928	1.827035994537924e-08	9.799999985810722	0.5000000000000001	-0.46368283729640314	-0.7381488635384598
4895	98	0	-9.75644992656322e-15	2.4182092298994536e-10	2.277687836487738e-10	1.0	0.0	0.0	0.0	-9.799999995015254	1.879177443798576e-08	9.799999985535857	0.5000000000000001	-0.5343879404352423	-0.6778589992362063
4896	98	20000000	-9.75647449051869e-15	2.729518440399072e-10	2.541167022647303e-10	1.0	0.0	0.0	0.0	-9.799999995936973	1.931287411597646e-08	9.799999985237251	0.5000000000000001	-0.5997536381473858	-0.6446604491122405
4897	98	40000000	-9.756494078155595e-15	3.0515308181365966e-10	2.804465419568972e-10	1.0	0.0	0.0	0.0	-9.799999996856286	1.9833623079293672e-08	9.79999998489426	0.5000000000000001	-0.659126820707342	-0.5668480840904233
4898	98	60000000	-9.756523512550512e-15	3.3855090590542025e-10	3.067564296275053e-10	1.0	0.0	0.0	0.0	-9.799999997837933	2.035398102354777e-08	9.799999984566691	0.5000000000000002	-0.7119142533708864	-0.49074420893102244
4899	98	80000000	-9.756555752742067e-15	3.732762783721393e-10	3.3304449311512725e-10	1.0	0.0	0.0	0.0	-9.799999998855101	2.0873915675336356e-08	9.799999984222705	0.5000000000000002	-0.7575885037558515	-0.4175544033379947
4900	98	100000000	-9.756588866436349e-15	4.0946536660797853e-10	3.5930886219534113e-10	1.0	0.0	0.0	0.0	-9.799999999925852	2.1393385751481353e-08	9.799999983874818	0.5000000000000001	-0.7956932117502054	-0.339836868402766
4901	98	120000000	-9.756628756394209e-15	4.4726007783690477e-10	3.8554766843125594e-10	1.0	0.0	0.0	0.0	-9.800000001037553	2.1912354961180965e-08	9.799999983504957	0.5000000000000002	-0.8258476492924542	-0.2433359839468946
4902	98	140000000	-9.756670102189947e-15	4.868086146140308e-10	4.117590453230125e-10	1.0	0.0	0.0	0.0	-9.800000002177892	2.2430790876339563e-08	9.799999983094988	0.5000000000000002	-0.8477505244647434	-0.18255532950145037
4903	98	160000000	-9.756721241804137e-15	5.282660576347114e-10	4.379411284847606e-10	1.0	0.0	0.0	0.0	-9.800000003387474	2.294864924618955e-08	9.799999982679443	0.5000000000000001	-0.861182991889574	-0.08546000445263334
4904	98	180000000	-9.756776272475929e-15	5.71794972423018e-10	4.640920549526861e-10	1.0	0.0	0.0	0.0	-9.800000004646115	2.3465904894787655e-08	9.799999982231705	0.5000000000000001	-0.8660108393513724	0.008173420540055112
4905	98	200000000	-9.756834188353697e-15	6.17566047356793e-10	4.902099639238882e-10	1.0	0.0	0.0	0.0	-9.80000000597253	2.3982506979338016e-08	9.799999981763948	0.5000000000000001	-0.8621858287949986	0.08670649020078909
4906	98	220000000	-9.756895968819288e-15	6.657587629840767e-10	5.162929977350465e-10	1.0	0.0	0.0	0.0	-9.800000007388741	2.44984295305152e-08	9.799999981291018	0.5000000000000002	-0.8497461783024419	0.1642923622418715
4907	98	240000000	-9.756968151908262e-15	7.165620960410193e-10	5.423393005198214e-10	1.0	0.0	0.0	0.0	-9.800000008864169	2.5013631153329705e-08	9.79999998077494	0.5000000000000002	-0.8288161802319699	0.26291815603156105
4908	98	260000000	-9.757042426109824e-15	7.701752596040104e-10	5.683470194182575e-10	1.0	0.0	0.0	0.0	-9.80000001044342	2.552807558615293e-08	9.799999980252561	0.5000000000000002	-0.7996049593351386	0.33145423827741566
4909	98	280000000	-9.757124588305708e-15	8.268084849289609e-10	5.943143045419235e-10	1.0	0.0	0.0	0.0	-9.800000012079934	2.6041729999801228e-08	9.799999979669039	0.5000000000000001	-0.7624043832601022	0.4014772244057611
4910	98	300000000	-9.757213844402525e-15	8.866838458892705e-10	6.202393084163527e-10	1.0	0.0	0.0	0.0	-9.800000013835657	2.655455518876029e-08	9.79999997907765	0.5000000000000002	-0.7175861463186926	0.5070489917806914
4911	98	320000000	-9.757313714880962e-15	9.50036129752781e-10	6.461201864686161e-10	1.0	0.0	0.0	0.0	-9.800000015675815	2.70665157094495e-08	9.799999978434402	0.5000000000000001	-0.6655980556551817	0.5594624559660575
4912	98	340000000	-1.2578679383566788e-06	-1.2578674406774425e-06	-1.9931525703855677e-07	0.999999999998398	-0.0001257854291992213	-0.0001258803828469376	-1.9995921052996975e-05	-6.172872146453094	0.04287054146230599	9.07580401226623	0.5000000000000002	-0.6069595569239511	0.6133290555440958
4913	98	360000000	-1.2578677631855687e-06	-1.2578672524604823e-06	-1.9931718433407066e-07	0.999999999998398	0.0	0.0	0.0	2.4663630143285202e-05	-2.466300623382831e-05	9.800000014468734	0.5000000000000001	-0.5422565441818221	0.649296327320366
4914	98	380000000	-1.2578675825280147e-06	-1.2578670636772578e-06	-1.9931959841870777e-07	0.999999999998398	0.0	0.0	0.0	2.466363875563631e-05	-2.4663232504261467e-05	9.800000014421403	0.5000000000000001	-0.4721355058526875	0.7282803471829822
4915	98	400000000	-1.2578674018704992e-06	-1.2578668748940646e-06	-1.9932201250272798e-07	0.999999999998398	0.0	0.0	0.0	2.4663635053959415e-05	-2.4663228961177235e-05	9.800000014446379	0.5000000000000001	-0.39729706525576924	0.753934597852756
4916	98	420000000	-1.2578672212130549e-06	-1.2578666861108983e-06	-1.9932442658613097e-07	0.999999999998398	0.0	0.0	0.0	2.466363135244624e-05	-2.466322541680476e-05	9.800000014424171	0.5000000000000001	-0.31848898023815353	0.8165583911189562
4917	98	440000000	-1.2578670405556783e-06	-1.2578664973277719e-06	-1.9932684066891682e-07	0.999999999998398	0.0	0.0	0.0	2.466362765019823e-05	-2.4663221872196733e-05	9.800000014424166	0.5000000000000001	-0.23649867185666248	0.8425545577054867
4918	98	460000000	-1.2578669681512044e-06	-1.2578663508658218e-06	-1.9932853465726845e-07	0.999999999998398	0.0	0.0	0.0	2.47263259447479e-05	-2.4722605746209196e-05	9.800000012617364	0.5000000000000001	-0.15214535675969576	0.8361672721387008
4919	98	480000000	-1.2578669228099343e-06	-1.2578662149841838e-06	-1.9933004862193356e-07	0.999999999998398	0.0	0.0	0.0	2.46609769490352e-05	-2.465645377649451e-05	9.800000011838451	0.5000000000000001	-0.06627186187935369	0.8588569514984117
4920	98	500000000	-1.257866877468661e-06	-1.2578660791025593e-06	-1.9933156258641057e-07	0.999999999998398	0.0	0.0	0.0	2.466097428542241e-05	-2.4656452888125052e-05	9.800000011855102	0.5000000000000001	0.02026379678160737	0.8691754691042184
4921	98	520000000	-1.2578668321274035e-06	-1.257865943220965e-06	-1.9933307655069825e-07	0.999999999998398	0.0	0.0	0.0	2.466097162040295e-05	-2.4656451998619694e-05	9.800000011846775	0.5000000000000001	0.10659698712636165	0.8657292055733031
4922	98	540000000	-1.2578667867861536e-06	-1.257865807339401e-06	-1.993345905147974e-07	0.999999999998398	0.0	0.0	0.0	2.4660968955622614e-05	-2.4656451109255432e-05	9.800000011838446	0.5000000000000001	0.19186510004614946	0.8266696326355178
4923	98	560000000	-1.257866741444925e-06	-1.2578656714578435e-06	-1.9933610447870828e-07	0.999999999998398	0.0	0.0	0.0	2.466096629220942e-05	-2.46564502198383e-05	9.80000001186065	0.5000000000000001	0.27521616828946965	0.803176551357331
4924	98	580000000	-1.2578666961037249e-06	-1.2578655355763128e-06	-1.9933761844242958e-07	0.999999999998398	0.0	0.0	0.0	2.4660963627551202e-05	-2.4656449329447228e-05	9.80000001182734	0.5000000000000001	0.3558173790017943	0.7683641633379946
4925	98	600000000	-1.257866650762515e-06	-1.2578653996948296e-06	-1.9933913240596279e-07	0.999999999998398	0.0	0.0	0.0	2.4660960961844066e-05	-2.4656448441193666e-05	9.800000011855092	0.5000000000000001	0.43286339488167713	0.7570002430379138
4926	98	620000000	-1.2578666054213237e-06	-1.2578652638133648e-06	-1.9934064636930782e-07	0.999999999998398	0.0	0.0	0.0	2.466095829778125e-05	-2.4656447551667925e-05	9.800000011846764	0.5000000000000001	0.5055844008113601	0.6887449759522506
4927	98	640000000	-1.257866560080149e-06	-1.2578651279319288e-06	-1.9934216033246452e-07	0.999999999998398	0.0	0.0	0.0	2.4660955633127282e-05	-2.465644666206037e-05	9.800000011827334	0.5000000000000001	0.5732537955629429	0.6546592541180519
4928	98	660000000	-1.257866514738975e-06	-1.2578649920504924e-06	-1.99343674295432e-07	0.999999999998398	0.0	0.0	0.0	2.4660952969950376e-05	-2.4656445773387803e-05	9.80000001186064	0.5000000000000001	0.6351954517274431	0.5919631782690029
4929	98	680000000	-1.2578664693978072e-06	-1.2578648561690968e-06	-1.9934518825821176e-07	0.999999999998398	0.0	0.0	0.0	2.46609503046397e-05	-2.4656444884066136e-05	9.800000011838433	0.5000000000000001	0.6907904713282451	0.5146196114796989
4930	98	700000000	-1.2578664240566771e-06	-1.2578647202877292e-06	-1.9934670222080174e-07	0.999999999998398	0.0	0.0	0.0	2.4660947639995694e-05	-2.4656443993741664e-05	9.80000001184398	0.5000000000000001	0.7394833696193573	0.45210641757527076
4931	98	720000000	-1.257866378715566e-06	-1.2578645844063998e-06	-1.9934821618320352e-07	0.999999999998398	0.0	0.0	0.0	2.4660944974701182e-05	-2.4656443104121563e-05	9.800000011857856	0.5000000000000002	0.7807876252822683	0.37708687794060347
4932	98	740000000	-1.2578663333744445e-06	-1.2578644485250885e-06	-1.9934973014541731e-07	0.999999999998398	0.0	0.0	0.0	2.466094231053443e-05	-2.4656442215596128e-05	9.800000011832875	0.5000000000000001	0.8142905415659007	0.290550675758199
4933	98	760000000	-1.2578662880333182e-06	-1.2578643126438037e-06	-1.993512441074418e-07	0.999999999998398	0.0	0.0	0.0	2.466093964637388e-05	-2.4656441327466602e-05	9.800000011866182	0.5000000000000002	0.8396573697989642	0.23135911748291382
4934	98	780000000	-1.2578662426921936e-06	-1.257864176762549e-06	-1.9935275806927768e-07	0.999999999998398	0.0	0.0	0.0	2.466093698126259e-05	-2.46564404384183e-05	9.800000011827322	0.5000000000000001	0.8566346540740971	0.13255491905345015
4935	98	800000000	-1.2578661973510828e-06	-1.2578640408813027e-06	-1.9935427203092476e-07	0.999999999998398	0.0	0.0	0.0	2.4660934317646364e-05	-2.465643954911961e-05	9.800000011843974	0.5	0.8650527636849716	0.04238549857006869
4936	98	820000000	-1.2578661520099902e-06	-1.2578639050000918e-06	-1.9935578599238331e-07	0.999999999998398	0.0	0.0	0.0	2.4660931652791722e-05	-2.465643865939532e-05	9.800000011855074	0.5	0.8648275880131817	-0.05386885341728458
4937	98	840000000	-1.2578661066689245e-06	-1.2578637691189006e-06	-1.9935729995365375e-07	0.999999999998398	0.0	0.0	0.0	2.466092898839265e-05	-2.465643776927021e-05	9.800000011827315	0.5000000000000001	0.8559613769302399	-0.14604985121053599
4938	98	860000000	-1.2578660613278385e-06	-1.2578636332377424e-06	-1.9935881391473522e-07	0.999999999998398	0.0	0.0	0.0	2.4660926323800168e-05	-2.465643688173705e-05	9.80000001186895	0.5	0.8385427183176988	-0.21515293121544973
4939	98	880000000	-1.2578660159867713e-06	-1.2578634973565984e-06	-1.9936032787562833e-07	0.999999999998398	0.0	0.0	0.0	2.466092365957935e-05	-2.4656435992016933e-05	9.800000011838415	0.5000000000000002	0.8127456529300074	-0.29318600215493484
4940	98	900000000	-1.2578659706457242e-06	-1.2578633614754868e-06	-1.9936184183633306e-07	0.999999999998398	0.0	0.0	0.0	2.4660920994684757e-05	-2.4656435102110685e-05	9.800000011832863	0.5	0.7788279354440607	-0.3798381254973898
4941	98	920000000	-1.257865925304669e-06	-1.257863225594398e-06	-1.9936335579684873e-07	0.999999999998398	0.0	0.0	0.0	2.4660918330524923e-05	-2.4656434214087845e-05	9.800000011860616	0.5000000000000001	0.7371284590703951	-0.4268317960402176
4942	98	940000000	-1.257865879963625e-06	-1.25786308971334e-06	-1.9936486975717563e-07	0.999999999998398	0.0	0.0	0.0	2.466091566572731e-05	-2.465643332453779e-05	9.800000011832859	0.5000000000000001	0.6880638694583463	-0.5216843962720041
4943	98	960000000	-1.2578658346226128e-06	-1.2578629538323029e-06	-1.993663837173138e-07	0.999999999998398	0.0	0.0	0.0	2.466091300137021e-05	-2.4656432434561113e-05	9.800000011855062	0.5000000000000002	0.6321244017277781	-0.5903667107928323
4944	98	980000000	-1.257865789281603e-06	-1.2578628179513001e-06	-1.99367897677264e-07	0.999999999998398	0.0	0.0	0.0	2.466091033639561e-05	-2.4656431545538388e-05	9.800000011838405	0.5000000000000001	0.5698689822222074	-0.6561941411300557
4945	99	0	-1.257865743940608e-06	-1.257862682070329e-06	-1.9936941163702531e-07	0.999999999998398	0.0	0.0	0.0	2.4660907671473628e-05	-2.4656430656004187e-05	9.80000001184673	0.5000000000000001	0.501919643924786	-0.7023665441961628
4946	99	20000000	-1.2578656985996135e-06	-1.2578625461893721e-06	-1.9937092559659838e-07	0.999999999998398	0.0	0.0	0.0	2.466090500791729e-05	-2.465642976746671e-05	9.800000011863382	0.5000000000000001	0.4289553113362242	-0.7505532029970932
4947	99	40000000	-1.2578656532586289e-06	-1.2578624103084459e-06	-1.993724395559821e-07	0.999999999998398	0.0	0.0	0.0	2.4660902342967345e-05	-2.4656428878066493e-05	9.800000011830074	0.5000000000000001	0.3517050169138435	-0.797737715848814
4948	99	60000000	-1.2578656079176273e-06	-1.2578622744275365e-06	-1.993739535151776e-07	0.999999999998398	0.0	0.0	0.0	2.466089967872742e-05	-2.4656427990210464e-05	9.80000001186338	0.5000000000000001	0.2709406168505755	-0.8240861125460675
4949	99	80000000	-1.2578655625766713e-06	-1.2578621385466638e-06	-1.993754674741844e-07	0.999999999998398	0.0	0.0	0.0	2.466089701396522e-05	-2.4656427099262772e-05	9.800000011843947	0.5000000000000001	0.1874690789751296	-0.8412673459304585
4950	99	100000000	-1.2578655172357223e-06	-1.2578620026658004e-06	-1.9937698143300256e-07	0.999999999998398	0.0	0.0	0.0	2.4660894349989345e-05	-2.465642621027231e-05	9.800000011843947	0.5000000000000001	0.10212441982976474	-0.8575430101201867
4951	99	120000000	-1.2578654718947885e-06	-1.257861866784983e-06	-1.9937849539163246e-07	0.999999999998398	0.0	0.0	0.0	2.4660891684661507e-05	-2.4656425320514735e-05	9.800000011857822	0.5000000000000001	0.015759371487381293	-0.8655831195946663
4952	99	140000000	-1.2578654265538522e-06	-1.2578617309041862e-06	-1.993800093500738e-07	0.999999999998398	0.0	0.0	0.0	2.4660889020247753e-05	-2.465642443218037e-05	9.800000011838392	0.5000000000000001	-0.070763138630005	-0.8717682600521317
4953	99	160000000	-1.2578653812129288e-06	-1.2578615950234128e-06	-1.993815233083267e-07	0.999999999998398	0.0	0.0	0.0	2.4660886355939922e-05	-2.4656423542889206e-05	9.800000011852267	0.5000000000000001	-0.15657860980092242	-0.8570010298568362
4954	99	180000000	-1.2578653358720062e-06	-1.2578614591426468e-06	-1.9938303726638951e-07	0.999999999998398	0.0	0.0	0.0	2.4660883692310517e-05	-2.465642265388603e-05	9.800000011838389	0.5000000000000001	-0.24082960577392543	-0.8394704052603311
4955	99	200000000	-1.2578652905310917e-06	-1.2578613232619084e-06	-1.9938455122426488e-07	0.999999999998398	0.0	0.0	0.0	2.4660881027775692e-05	-2.465642176487694e-05	9.800000011852266	0.5000000000000001	-0.3226743219515219	-0.7976890661159503
4956	99	220000000	-1.2578652451901927e-06	-1.2578611873811961e-06	-1.993860651819507e-07	0.999999999998398	0.0	0.0	0.0	2.4660878363321873e-05	-2.4656420875222222e-05	9.800000011855039	0.5000000000000001	-0.4012949963884311	-0.7882241610083208
4957	99	240000000	-1.2578651998493025e-06	-1.257861051500521e-06	-1.9938757913944846e-07	0.999999999998398	0.0	0.0	0.0	2.466087569801061e-05	-2.4656419986270766e-05	9.800000011835609	0.5000000000000001	-0.4759060805646078	-0.7298769318830881
4958	99	260000000	-1.2578651545084348e-06	-1.257860915619879e-06	-1.9938909309675833e-07	0.999999999998398	0.0	0.0	0.0	2.4660873033270938e-05	-2.465641909641617e-05	9.80000001185781	0.4999964102854695	-0.5165979912096592	-0.6934763106475419
4959	99	280000000	-1.2578651091675836e-06	-1.2578607797392664e-06	-1.9939060705387936e-07	0.999999999998398	0.0	0.0	0.0	2.4660870368626124e-05	-2.4656418206797127e-05	9.800000011835603	0.500000000298144	-0.5464684734190285	-0.670296216490191
4960	99	300000000	-1.2578650638267322e-06	-1.2578606438586575e-06	-1.9939212101081132e-07	0.999999999998398	0.0	0.0	0.0	2.4660867705059515e-05	-2.4656417318158643e-05	9.800000011841155	0.4999999997261221	-0.5751724244869992	-0.6346333147809957
4961	99	320000000	-1.257865018485879e-06	-1.2578605079780914e-06	-1.9939363496755559e-07	0.999999999998398	0.0	0.0	0.0	2.4660865039700953e-05	-2.465641642949458e-05	9.800000011849479	0.4999999997644487	-0.60271895548201	-0.6202665654011162
4962	99	340000000	-1.2578649731450376e-06	-1.257860372097542e-06	-1.9939514892411085e-07	0.999999999998398	0.0	0.0	0.0	2.4660862375652216e-05	-2.4656415540145305e-05	9.800000011843926	0.4999999997626713	-0.6291125521508758	-0.6064306773178003
4963	99	360000000	-1.2578649278041995e-06	-1.2578602362170065e-06	-1.9939666288047713e-07	0.999999999998398	0.0	0.0	0.0	2.4660859711856244e-05	-2.465641465126543e-05	9.800000011843926	0.499999999721802	-0.6543514672280469	-0.5656673624679142
4964	99	380000000	-1.2578648824633767e-06	-1.2578601003365145e-06	-1.993981768366547e-07	0.999999999998398	0.0	0.0	0.0	2.4660857046499865e-05	-2.4656413761800378e-05	9.800000011843922	0.499999999642836	-0.6784270908733152	-0.5283009118188302
4965	99	400000000	-1.2578648371225556e-06	-1.2578599644560543e-06	-1.993996907926436e-07	0.999999999998398	0.0	0.0	0.0	2.4660854381580916e-05	-2.465641287292396e-05	9.800000011849471	0.4999999998371535	-0.7013231355250027	-0.4993791281060425
4966	99	420000000	-1.2578647917817559e-06	-1.2578598285756006e-06	-1.9940120474844392e-07	0.999999999998398	0.0	0.0	0.0	2.46608517179569e-05	-2.4656411983347816e-05	9.800000011843919	0.5000000000088505	-0.7230146303456462	-0.4715179176786728
4967	99	440000000	-1.2578647464409822e-06	-1.2578596926951828e-06	-1.994027187040557e-07	0.999999999998398	0.0	0.0	0.0	2.4660849052984567e-05	-2.465641109329055e-05	9.800000011849468	0.5000000001647167	-0.7434676720245029	-0.43889255400118704
4968	99	460000000	-1.2578647011002294e-06	-1.2578595568147835e-06	-1.9940423265947894e-07	0.999999999998398	0.0	0.0	0.0	2.466084638898526e-05	-2.465641020337151e-05	9.800000011849464	0.5000000003257784	-0.7626386198377665	-0.39019856781386625
4969	99	480000000	-1.2578646557594587e-06	-1.2578594209343962e-06	-1.9940574661471313e-07	0.999999999998398	0.0	0.0	0.0	2.4660843725102335e-05	-2.4656409315736665e-05	9.800000011843913	0.4999999997174212	-0.7804736610160444	-0.3748430503662259
4970	99	500000000	-1.2578646104187121e-06	-1.2578592850540456e-06	-1.994072605697596e-07	0.999999999998398	0.0	0.0	0.0	2.4660841059907498e-05	-2.465640842557536e-05	9.800000011846686	0.4999999996442528	-0.7969086149407375	-0.3658566590948212
4971	99	520000000	-1.2578645650779778e-06	-1.2578591491737237e-06	-1.994087745246164e-07	0.999999999998398	0.0	0.0	0.0	2.4660838395377717e-05	-2.4656407536338998e-05	9.800000011855012	0.49999999956324653	-0.8118650473603976	-0.28671244371744714
4972	99	540000000	-1.2578645197372662e-06	-1.257859013293436e-06	-1.9941028847928546e-07	0.999999999998398	0.0	0.0	0.0	2.4660835730431095e-05	-2.4656406646544622e-05	9.800000011843906	0.4999999994758932	-0.8252535243000344	-0.2671607707736412
4973	99	560000000	-1.2578644743965454e-06	-1.2578588774131675e-06	-1.9941180243376553e-07	0.999999999998398	0.0	0.0	0.0	2.466083306627485e-05	-2.4656405758385745e-05	9.800000011849457	0.50000000004764	-0.8369718812234692	-0.24463917744450742
4974	99	580000000	-1.2578644290558041e-06	-1.2578587415329063e-06	-1.9941331638805702e-07	0.999999999998398	0.0	0.0	0.0	2.466083040278783e-05	-2.4656404870505234e-05	9.800000011849457	0.5000000002634056	-0.846904761162037	-0.17907307841426084
4975	99	600000000	-1.257864383715077e-06	-1.2578586056526829e-06	-1.9941483034215942e-07	0.999999999998398	0.0	0.0	0.0	2.4660827737452153e-05	-2.4656403981187602e-05	9.800000011838351	0.5000000004950151	-0.8549239035115894	-0.12945826480203568
4976	99	620000000	-1.2578643383743721e-06	-1.2578584697724774e-06	-1.994163442960738e-07	0.999999999998398	0.0	0.0	0.0	2.466082507357444e-05	-2.465640309134393e-05	9.800000011855005	0.5000000007307422	-0.8608879978925706	-0.09379952819487392
4977	99	640000000	-1.2578642930336897e-06	-1.2578583338923126e-06	-1.9941785824979918e-07	0.999999999998398	0.0	0.0	0.0	2.4660822408244503e-05	-2.465640220138125e-05	9.800000011832797	0.5000000009477678	-0.8646428570343662	-0.029444647371316007
4978	99	660000000	-1.2578642476930043e-06	-1.257858198012183e-06	-1.9941937220333597e-07	0.999999999998398	0.0	0.0	0.0	2.466081974321131e-05	-2.4656401312961377e-05	9.800000011855	0.5000000010938193	-0.8660219542170928	0.0026878401020299057
4979	99	680000000	-1.2578642023523306e-06	-1.257858062132059e-06	-1.9942088615668405e-07	0.999999999998398	0.0	0.0	0.0	2.4660817079785783e-05	-2.4656400423731535e-05	9.800000011843897	0.49999999970232056	-0.865526878763838	0.04347787953192475
4980	99	700000000	-1.257864157011689e-06	-1.2578579262519628e-06	-1.9942240010984402e-07	0.999999999998398	0.0	0.0	0.0	2.46608144148747e-05	-2.4656399533211378e-05	9.800000011841117	0.4999999996777836	-0.8639941039897221	0.05387693911944259
4981	99	720000000	-1.2578641116710432e-06	-1.257857790371885e-06	-1.9942391406281552e-07	0.999999999998398	0.0	0.0	0.0	2.4660811751195384e-05	-2.4656398644800746e-05	9.800000011849445	0.499999999655905	-0.8615363840437643	0.08400872698526686
4982	99	740000000	-1.257864066330397e-06	-1.2578576544918388e-06	-1.9942542801559792e-07	0.999999999998398	0.0	0.0	0.0	2.4660809086290618e-05	-2.4656397756248242e-05	9.800000011827239	0.4999999996366362	-0.8582558861435864	0.1217726627929692
4983	99	760000000	-1.2578640209897576e-06	-1.2578575186118167e-06	-1.9942694196819206e-07	0.999999999998398	0.0	0.0	0.0	2.466080642171341e-05	-2.4656396866808645e-05	9.800000011866093	0.49999999961984026	-0.8542463211101506	0.13049874951915505
4984	99	780000000	-1.2578639756491664e-06	-1.2578573827318448e-06	-1.9942845592059703e-07	0.999999999998398	0.0	0.0	0.0	2.4660803756015507e-05	-2.465639597594474e-05	9.800000011838334	0.49999999960532693	-0.849593259451836	0.1406014045600579
4985	99	800000000	-1.2578639303085716e-06	-1.2578572468518805e-06	-1.9942996987281388e-07	0.999999999998398	0.0	0.0	0.0	2.466080109270245e-05	-2.465639508753051e-05	9.800000011857762	0.4999999995928768	-0.8443744958201168	0.18415808524242636
4986	99	820000000	-1.2578638849679763e-06	-1.2578571109719518e-06	-1.9943148382484197e-07	0.999999999998398	0.0	0.0	0.0	2.4660798427290413e-05	-2.465639419862122e-05	9.800000011835555	0.49999999958226093	-0.8386604459175641	0.19968471858652626
4987	99	840000000	-1.257863839627374e-06	-1.2578569750920343e-06	-1.9943299777668162e-07	0.999999999998398	0.0	0.0	0.0	2.4660795763765288e-05	-2.4656393310438386e-05	9.800000011852209	0.49999999957325414	-0.8325145627063119	0.2607043806175086
4988	99	860000000	-1.2578637942868024e-06	-1.2578568392121484e-06	-1.994345117283331e-07	0.999999999998398	0.0	0.0	0.0	2.4660793099074435e-05	-2.4656392420168232e-05	9.800000011857756	0.4999999995656435	-0.8259937612103458	0.2679899843127628
4989	99	880000000	-1.257863748946236e-06	-1.2578567033322766e-06	-1.9943602567979513e-07	0.999999999998398	0.0	0.0	0.0	2.466079043484603e-05	-2.4656391531195187e-05	9.800000011827224	0.4999999995592332	-0.8191488433358743	0.27878746897572926
4990	99	900000000	-1.2578637036056764e-06	-1.2578565674524458e-06	-1.994375396310689e-07	0.999999999998398	0.0	0.0	0.0	2.4660787770001525e-05	-2.465639064206074e-05	9.80000001186608	0.4999999995538473	-0.8120249159678551	0.3114564037901832
4991	99	920000000	-1.2578636582651367e-06	-1.257856431572645e-06	-1.9943905358215396e-07	0.999999999998398	0.0	0.0	0.0	2.4660785105138688e-05	-2.4656389752311448e-05	9.80000001183277	0.4999999995493302	-0.8046617971602864	0.3113370811906686
4992	99	940000000	-1.2578636129246133e-06	-1.257856295692854e-06	-1.9944056753305113e-07	0.999999999998398	0.0	0.0	0.0	2.466078244140857e-05	-2.4656388863055328e-05	9.800000011866077	0.49999999954554714	-0.7970944065490743	0.3280635276569323
4993	99	960000000	-1.2578635675841003e-06	-1.2578561598130997e-06	-1.99442081483759e-07	0.999999999998398	0.0	0.0	0.0	2.4660779776141638e-05	-2.465638797355207e-05	9.800000011835543	0.4999999995423808	-0.7893531372062504	0.3491288835762034
4994	99	980000000	-1.2578635222435968e-06	-1.2578560239333599e-06	-1.9944359543427854e-07	0.999999999998398	0.0	0.0	0.0	2.4660777112523153e-05	-2.4656387084352756e-05	9.800000011843869	0.4999999995397316	-0.7814642070498928	0.39137572717630614
4995	100	0	-1.257863476903101e-06	-1.257855888053645e-06	-1.9944510938460894e-07	0.999999999998398	0.0	0.0	0.0	2.466077444789611e-05	-2.4656386195423906e-05	9.80000001186052	0.49999999953751517	-0.7734499886508911	0.3684380813035169
4996	100	20000000	-1.2578634315626032e-06	-1.2578557521739586e-06	-1.9944662333475177e-07	0.999999999998398	0.0	0.0	0.0	2.4660771783215977e-05	-2.465638530661484e-05	9.800000011829988	0.49999999953566027	-0.7653293168596942	0.39261821489210064
4997	100	40000000	-1.2578633862221215e-06	-1.257855616294312e-06	-1.9944813728470545e-07	0.999999999998398	0.0	0.0	0.0	2.4660769118328583e-05	-2.4656384417370368e-05	9.800000011863292	0.49999999953410684	-0.7571177741350844	0.407523426959569
4998	100	60000000	-1.2578633408816637e-06	-1.257855480414694e-06	-1.9944965123447064e-07	0.999999999998398	0.0	0.0	0.0	2.4660766453497997e-05	-2.465638352744536e-05	9.800000011832758	0.4999999995328054	-0.7488279538124517	0.42561787217923897
4999	100	80000000	-1.2578632955412316e-06	-1.2578553445350996e-06	-1.9945116518404686e-07	0.999999999998398	0.0	0.0	0.0	2.466076378916458e-05	-2.4656382637139346e-05	9.800000011866063	0.499999999531714	-0.7404697018182139	0.4298597152618687
5000	100	100000000	-1.2578632502007855e-06	-1.257855208655512e-06	-1.9945267913343366e-07	0.999999999998398	0.0	0.0	0.0	2.46607611254087e-05	-2.465638174918855e-05	9.800000011827205	0.4999999995307982	-0.7320503375351565	0.46590544182302934
5001	100	120000000	-1.2578632048603595e-06	-1.2578550727759507e-06	-1.9945419308263258e-07	0.999999999998398	0.0	0.0	0.0	2.4660758461058842e-05	-2.4656380859667882e-05	9.800000011849407	0.4999999995300295	-0.7235748546635048	0.4785949255797436
5002	100	140000000	-1.2578631595199225e-06	-1.2578549368964119e-06	-1.9945570703164267e-07	0.999999999998398	0.0	0.0	0.0	2.4660755796664404e-05	-2.465637997137049e-05	9.800000011849406	0.49999999952938434	-0.7150461030158224	0.485943866534608
5003	100	160000000	-1.257863114179494e-06	-1.257854801016918e-06	-1.9945722098046458e-07	0.999999999998398	0.0	0.0	0.0	2.4660753131459165e-05	-2.4656379082337487e-05	9.80000001183275	0.49999999952884316	-0.7064649522398152	0.5130716191606352
5004	100	180000000	-1.2578630688390921e-06	-1.2578546651374574e-06	-1.994587349290974e-07	0.999999999998398	0.0	0.0	0.0	2.4660750466322936e-05	-2.465637819224578e-05	9.800000011860503	0.4999999995283899	-0.6978304384899185	0.5063503061753128
5005	100	200000000	-1.2578630234986742e-06	-1.2578545292580219e-06	-1.9946024887754245e-07	0.999999999998398	0.0	0.0	0.0	2.466074780201947e-05	-2.4656377304406345e-05	9.800000011835522	0.4999999995280114	-0.6891398950729035	0.5255464724607135
5006	100	220000000	-1.2578629781582993e-06	-1.2578543933786052e-06	-1.9946176282579788e-07	0.999999999998398	0.0	0.0	0.0	2.4660745137686404e-05	-2.4656376413426123e-05	9.800000011863274	0.4999999995276968	-0.6803890680803257	0.5363411127284534
5007	100	240000000	-1.257862932817921e-06	-1.2578542574992038e-06	-1.994632767738653e-07	0.999999999998398	0.0	0.0	0.0	2.46607424738761e-05	-2.4656375525125853e-05	9.800000011827192	0.4999999995274376	-0.6715722179961683	0.5498388610208834
5008	100	260000000	-1.2578628874775589e-06	-1.2578541216198284e-06	-1.9946479072174364e-07	0.999999999998398	0.0	0.0	0.0	2.4660739809539253e-05	-2.4656374635409804e-05	9.800000011866048	0.49999999952722646	-0.6626822082354006	0.5569631714745613
5009	100	280000000	-1.2578628421371884e-06	-1.25785398574047e-06	-1.9946630466943376e-07	0.999999999998398	0.0	0.0	0.0	2.4660737145216352e-05	-2.465637374696488e-05	9.800000011832742	0.49999999952705787	-0.6537105815316151	0.5899036486791989
5010	100	300000000	-1.2578627967968386e-06	-1.2578538498611513e-06	-1.9946781861693449e-07	0.999999999998398	0.0	0.0	0.0	2.466073447999764e-05	-2.465637285743946e-05	9.800000011843842	0.49999999952692753	-0.6446476250521441	0.5694817006057153
5011	100	320000000	-1.2578627514565174e-06	-1.2578537139818602e-06	-1.9946933256424807e-07	0.999999999998398	0.0	0.0	0.0	2.4660731815589496e-05	-2.465637196738021e-05	9.80000001184939	0.49999999952683183	-0.6354824250793026	0.5939138364829499
5012	100	340000000	-1.2578627514565174e-06	-1.2578537139818602e-06	-1.9946933256424807e-07	0.999999999998398	0.0	0.0	0.0	0.06291834517114465	-0.0629187701079525	10.16421157638035	0.4999999995267685	-0.6262029120585918	0.5908646876933408
5013	100	360000000	-1.2578627514565174e-06	-1.2578537139818602e-06	-1.9946933256424807e-07	0.999999999998398	0.0	0.0	0.0	2.465393771174382e-05	-2.465410501080473e-05	9.799999999937981	0.49999999952673596	-0.6167958967804282	0.5785096058196333
5014	100	380000000	-1.2578627514565174e-06	-1.2578537139818602e-06	-1.9946933256424807e-07	0.999999999998398	0.0	0.0	0.0	2.465393771174382e-05	-2.465410501080473e-05	9.799999999937981	0.4999999995267333	-0.6072470984326808	0.6079813018243203
5015	100	400000000	-1.2578627514565174e-06	-1.2578537139818602e-06	-1.9946933256424807e-07	0.999999999998398	0.0	0.0	0.0	2.465393771174382e-05	-2.465410501080473e-05	9.799999999937981	0.4999999995267606	-0.597541165238294	0.6290782991077596
5016	100	420000000	-1.2578627514565174e-06	-1.2578537139818602e-06	-1.9946933256424807e-07	0.999999999998398	0.0	0.0	0.0	2.465393771174382e-05	-2.465410501080473e-05	9.799999999937981	0.49999999952681856	-0.5876616883767374	0.6193835428519595
5017	100	440000000	-1.2578627514565174e-06	-1.2578537139818602e-06	-1.9946933256424807e-07	0.999999999998398	0.0	0.0	0.0	2.465393771174382e-05	-2.465410501080473e-05	9.799999999937981	0.49999999952690843	-0.5775912098811382	0.6375525708644189
5018	100	460000000	-1.2578627514565174e-06	-1.2578537139818602e-06	-1.9946933256424807e-07	0.999999999998398	0.0	0.0	0.0	2.465393771174382e-05	-2.465410501080473e-05	9.799999999937981	0.49999999952703267	-0.5673112252058973	0.6398241965124367
5019	100	480000000	-1.2578627514565174e-06	-1.2578537139818602e-06	-1.9946933256424807e-07	0.999999999998398	0.0	0.0	0.0	2.465393771174382e-05	-2.465410501080473e-05	9.799999999937981	0.49999999952719415	-0.5568021811735301	0.6721283976949305
5020	100	500000000	-1.2578627514565174e-06	-1.2578537139818602e-06	-1.9946933256424807e-07	0.999999999998398	0.0	0.0	0.0	2.465393771174382e-05	-2.465410501080473e-05	9.799999999937981	0.49999999952739715	-0.5460434700357842	0.6630955751782938
5021	100	520000000	-1.2578627514565174e-06	-1.2578537139818602e-06	-1.9946933256424807e-07	0.999999999998398	0.0	0.0	0.0	2.465393771174382e-05	-2.465410501080473e-05	9.799999999937981	0.49999999952764673	-0.5350134204240469	0.6777072968451301
5022	100	540000000	-1.2578627514565174e-06	-1.2578537139818602e-06	-1.9946933256424807e-07	0.999999999998398	0.0	0.0	0.0	2.465393771174382e-05	-2.465410501080473e-05	9.799999999937981	0.4999999995279493	-0.523689286019281	0.6865664237259383
5023	100	560000000	-1.2578627514565174e-06	-1.2578537139818602e-06	-1.9946933256424807e-07	0.999999999998398	0.0	0.0	0.0	2.465393771174382e-05	-2.465410501080473e-05	9.799999999937981	0.4999999995283129	-0.5120472328437969	0.6988086257393633
5024	100	580000000	-1.2578627514565174e-06	-1.2578537139818602e-06	-1.9946933256424807e-07	0.999999999998398	0.0	0.0	0.0	2.465393771174382e-05	-2.465410501080473e-05	9.799999999937981	0.4999999995287472	-0.5000623261679529	0.69099329457619
5025	100	600000000	-1.2578627514565174e-06	-1.2578537139818602e-06	-1.9946933256424807e-07	0.999999999998398	0.0	0.0	0.0	2.465393771174382e-05	-2.465410501080473e-05	9.799999999937981	0.49999999952926377	-0.4877085181363231	0.7112540423272665
5026	100	620000000	-1.2578627514565174e-06	-1.2578537139818602e-06	-1.9946933256424807e-07	0.999999999998398	0.0	0.0	0.0	2.465393771174382e-05	-2.465410501080473e-05	9.799999999937981	0.499999999529877	-0.47495863735216165	0.7200447971594813
5027	100	640000000	-1.2578627514565174e-06	-1.2578537139818602e-06	-1.9946933256424807e-07	0.999999999998398	0.0	0.0	0.0	2.465393771174382e-05	-2.465410501080473e-05	9.799999999937981	0.49999999953060353	-0.46178438181839787	0.732034277795002
5028	100	660000000	-1.2578627514565174e-06	-1.2578537139818602e-06	-1.9946933256424807e-07	0.999999999998398	0.0	0.0	0.0	2.465393771174382e-05	-2.465410501080473e-05	9.799999999937981	0.49999999953146396	-0.44815631682040075	0.7362395826074246
5029	100	680000000	-1.2578627514565174e-06	-1.2578537139818602e-06	-1.9946933256424807e-07	0.999999999998398	0.0	0.0	0.0	2.465393771174382e-05	-2.465410501080473e-05	9.799999999937981	0.4999999995324829	-0.4340438795528557	0.7607816557902167
5030	100	700000000	-1.2578627514565174e-06	-1.2578537139818602e-06	-1.9946933256424807e-07	0.999999999998398	0.0	0.0	0.0	2.465393771174382e-05	-2.465410501080473e-05	9.799999999937981	0.49999999953368923	-0.419415392542876	0.7630226542898169
5031	100	720000000	-1.2578627514565174e-06	-1.2578537139818602e-06	-1.9946933256424807e-07	0.999999999998398	0.0	0.0	0.0	2.465393771174382e-05	-2.465410501080473e-05	9.799999999937981	0.49999999953511814	-0.40423808820647594	0.7519414641756944
5032	100	740000000	-1.2578627514565174e-06	-1.2578537139818602e-06	-1.9946933256424807e-07	0.999999999998398	0.0	0.0	0.0	2.465393771174382e-05	-2.465410501080473e-05	9.799999999937981	0.4999999995368105	-0.38847814719801727	0.7639756521926058
5033	100	760000000	-1.2578627514565174e-06	-1.2578537139818602e-06	-1.9946933256424807e-07	0.999999999998398	0.0	0.0	0.0	2.465393771174382e-05	-2.465410501080473e-05	9.799999999937981	0.49999999953881524	-0.37210075357430916	0.7635463926343186
5034	100	780000000	-1.2578627514565174e-06	-1.2578537139818602e-06	-1.9946933256424807e-07	0.999999999998398	0.0	0.0	0.0	2.465393771174382e-05	-2.465410501080473e-05	9.799999999937981	0.49999999954119	-0.3550701701980275	0.7954813716331712
5035	100	800000000	-1.2578627514565174e-06	-1.2578537139818602e-06	-1.9946933256424807e-07	0.999999999998398	0.0	0.0	0.0	2.465393771174382e-05	-2.465410501080473e-05	9.799999999937981	0.4999999995440017	-0.3373498382496831	0.8049409089993673
5036	100	820000000	-1.2578627514565174e-06	-1.2578537139818602e-06	-1.9946933256424807e-07	0.999999999998398	0.0	0.0	0.0	2.465393771174382e-05	-2.465410501080473e-05	9.799999999937981	0.4999999995473286	-0.3189025052028833	0.783346630276653
5037	100	840000000	-1.2578627514565174e-06	-1.2578537139818602e-06	-1.9946933256424807e-07	0.999999999998398	0.0	0.0	0.0	2.465393771174382e-05	-2.465410501080473e-05	9.799999999937981	0.4999999995512609	-0.2996903861418554	0.8020512773333957
5038	100	860000000	-1.2578627514565174e-06	-1.2578537139818602e-06	-1.9946933256424807e-07	0.999999999998398	0.0	0.0	0.0	2.465393771174382e-05	-2.465410501080473e-05	9.799999999937981	0.49999999955590196	-0.2796753638586757	0.8359785547374619
5039	100	880000000	-1.2578627514565174e-06	-1.2578537139818602e-06	-1.9946933256424807e-07	0.999999999998398	0.0	0.0	0.0	2.465393771174382e-05	-2.465410501080473e-05	9.799999999937981	0.4999999995613682	-0.2588192337530736	0.828102198794724
5040	100	900000000	-1.2578627514565174e-06	-1.2578537139818602e-06	-1.9946933256424807e-07	0.999999999998398	0.0	0.0	0.0	2.465393771174382e-05	-2.465410501080473e-05	9.799999999937981	0.4999999995677899	-0.23708400015900039	0.8437943174661516
5041	100	920000000	-1.2578627514565174e-06	-1.2578537139818602e-06	-1.9946933256424807e-07	0.999999999998398	0.0	0.0	0.0	2.465393771174382e-05	-2.465410501080473e-05	9.799999999937981	0.49999999957531016	-0.21443223132373485	0.8540940361698663
5042	100	940000000	-1.2578627514565174e-06	-1.2578537139818602e-06	-1.9946933256424807e-07	0.999999999998398	0.0	0.0	0.0	2.465393771174382e-05	-2.465410501080473e-05	9.799999999937981	0.4999999995840827	-0.1908274808456876	0.8426733386506033
5043	100	960000000	-1.2578627514565174e-06	-1.2578537139818602e-06	-1.9946933256424807e-07	0.999999999998398	0.0	0.0	0.0	2.465393771174382e-05	-2.465410501080473e-05	9.799999999937981	0.4999999995942687	-0.16623478390778051	0.8461747861510518
5044	100	980000000	-1.2578627514565174e-06	-1.2578537139818602e-06	-1.9946933256424807e-07	0.999999999998398	0.0	0.0	0.0	2.465393771174382e-05	-2.465410501080473e-05	9.799999999937981	0.4999999996060313	-0.14062123708741125	0.8423835809329252
5045	101	0	-1.2578627514565174e-06	-1.2578537139818602e-06	-1.9946933256424807e-07	0.999999999998398	0.0	0.0	0.0	2.465393771174382e-05	-2.465410501080473e-05	9.799999999937981	0.49999999961952746	-0.11395667083465176	0.8886554372529418
5046	101	20000000	-1.2578627514565174e-06	-1.2578537139818602e-06	-1.9946933256424807e-07	0.999999999998398	0.0	0.0	0.0	2.465393771174382e-05	-2.465410501080473e-05	9.799999999937981	0.49999999963489683	-0.08621442382907495	0.8570305329023535
5047	101	40000000	-1.2578627514565174e-06	-1.2578537139818602e-06	-1.9946933256424807e-07	0.999999999998398	0.0	0.0	0.0	2.465393771174382e-05	-2.465410501080473e-05	9.799999999937981	0.4999999996522469	-0.05737222828097388	0.8661061801633752
5048	101	60000000	-1.2578627514565174e-06	-1.2578537139818602e-06	-1.9946933256424807e-07	0.999999999998398	0.0	0.0	0.0	2.465393771174382e-05	-2.465410501080473e-05	9.799999999937981	0.4999999996716335	-0.0274132147489193	0.8523699893158596
5049	101	80000000	-1.2578627514565174e-06	-1.2578537139818602e-06	-1.9946933256424807e-07	0.999999999998398	0.0	0.0	0.0	2.465393771174382e-05	-2.465410501080473e-05	9.799999999937981	0.5000000032053092	0.0024340939381270583	0.8716274758484642
5050	101	100000000	-1.2578627514565174e-06	-1.2578537139818602e-06	-1.9946933256424807e-07	0.999999999998398	0.0	0.0	0.0	2.465393771174382e-05	-2.465410501080473e-05	9.799999999937981	0.49999999960700897	0.02280719446366401	0.8631056427429024
5051	101	120000000	-1.2578627514565174e-06	-1.2578537139818602e-06	-1.9946933256424807e-07	0.999999999998398	0.0	0.0	0.0	2.465393771174382e-05	-2.465410501080473e-05	9.799999999937981	0.4999999995955426	0.04206655561487633	0.8787201102549916
5052	101	140000000	-1.2578627514565174e-06	-1.2578537139818602e-06	-1.9946933256424807e-07	0.999999999998398	0.0	0.0	0.0	2.465393771174382e-05	-2.465410501080473e-05	9.799999999937981	0.49999999958549296	0.060231914131086875	0.8617000409588268
5053	101	160000000	-1.2578627514565174e-06	-1.2578537139818602e-06	-1.9946933256424807e-07	0.999999999998398	0.0	0.0	0.0	2.465393771174382e-05	-2.465410501080473e-05	9.799999999937981	0.4999999995767399	0.07732429082992791	0.8696799950207548
5054	101	180000000	-1.2578627514565174e-06	-1.2578537139818602e-06	-1.9946933256424807e-07	0.999999999998398	0.0	0.0	0.0	2.465393771174382e-05	-2.465410501080473e-05	9.799999999937981	0.4999999995691565	0.09336591262942985	0.8651844074070567
5055	101	200000000	-1.2578627514565174e-06	-1.2578537139818602e-06	-1.9946933256424807e-07	0.999999999998398	0.0	0.0	0.0	2.465393771174382e-05	-2.465410501080473e-05	9.799999999937981	0.4999999995626164	0.10837972631315189	0.8576336286258401
5056	101	220000000	-1.2578627514565174e-06	-1.2578537139818602e-06	-1.9946933256424807e-07	0.999999999998398	0.0	0.0	0.0	2.465393771174382e-05	-2.465410501080473e-05	9.799999999937981	0.4999999995569988	0.1223889782426035	0.8751620112266593
5057	101	240000000	-1.2578627514565174e-06	-1.2578537139818602e-06	-1.9946933256424807e-07	0.999999999998398	0.0	0.0	0.0	2.465393771174382e-05	-2.465410501080473e-05	9.799999999937981	0.4999999995521905	0.13541685302727458	0.849626716941739
5058	101	260000000	-1.2578627514565174e-06	-1.2578537139818602e-06	-1.9946933256424807e-07	0.999999999998398	0.0	0.0	0.0	2.465393771174382e-05	-2.465410501080473e-05	9.799999999937981	0.49999999954808755	0.14748616454701297	0.8667990451295229
5059	101	280000000	-1.2578627514565174e-06	-1.2578537139818602e-06	-1.9946933256424807e-07	0.999999999998398	0.0	0.0	0.0	2.465393771174382e-05	-2.465410501080473e-05	9.799999999937981	0.499999999544597	0.15861909316599784	0.8730593301055627
5060	101	300000000	-1.2578627514565174e-06	-1.2578537139818602e-06	-1.9946933256424807e-07	0.999999999998398	0.0	0.0	0.0	2.465393771174382e-05	-2.465410501080473e-05	9.799999999937981	0.49999999954163576	0.1688369634562054	0.8367010304958944
5061	101	320000000	-1.2578627514565174e-06	-1.2578537139818602e-06	-1.9946933256424807e-07	0.999999999998398	0.0	0.0	0.0	2.465393771174382e-05	-2.465410501080473e-05	9.799999999937981	0.499999999539131	0.17816005724112444	0.836031735728714
5062	101	340000000	-1.2578627514565174e-06	-1.2578537139818602e-06	-1.9946933256424807e-07	0.999999999998398	0.0	0.0	0.0	2.465393771174382e-05	-2.465410501080473e-05	9.799999999937981	0.4999999995370194	0.18660745726281397	0.8448549813033308
5063	101	360000000	-1.2578627514565174e-06	-1.2578537139818602e-06	-1.9946933256424807e-07	0.999999999998398	0.0	0.0	0.0	2.465393771174382e-05	-2.465410501080473e-05	9.799999999937981	0.4999999995352461	0.19419691725654073	0.8435177058949073
5064	101	380000000	-1.2578627514565174e-06	-1.2578537139818602e-06	-1.9946933256424807e-07	0.999999999998398	0.0	0.0	0.0	2.465393771174382e-05	-2.465410501080473e-05	9.799999999937981	0.49999999953376456	0.20094475467998765	0.8408613103964732
5065	101	400000000	-1.2578627514565174e-06	-1.2578537139818602e-06	-1.9946933256424807e-07	0.999999999998398	0.0	0.0	0.0	2.465393771174382e-05	-2.465410501080473e-05	9.799999999937981	0.499999999532535	0.20686576278382163	0.839204016169419
5066	101	420000000	-1.2578627514565174e-06	-1.2578537139818602e-06	-1.9946933256424807e-07	0.999999999998398	0.0	0.0	0.0	2.465393771174382e-05	-2.465410501080473e-05	9.799999999937981	0.49999999953152385	0.21197313912486934	0.8561706073118008
5067	101	440000000	-1.2578627514565174e-06	-1.2578537139818602e-06	-1.9946933256424807e-07	0.999999999998398	0.0	0.0	0.0	2.465393771174382e-05	-2.465410501080473e-05	9.799999999937981	0.4999999995307038	0.21627842801150388	0.8423480780309633
5068	101	460000000	-1.2578627514565174e-06	-1.2578537139818602e-06	-1.9946933256424807e-07	0.999999999998398	0.0	0.0	0.0	2.465393771174382e-05	-2.465410501080473e-05	9.799999999937981	0.49999999953005214	0.21979147473361396	0.8251612320859825
5069	101	480000000	-1.2578627514565174e-06	-1.2578537139818602e-06	-1.9946933256424807e-07	0.999999999998398	0.0	0.0	0.0	2.465393771174382e-05	-2.465410501080473e-05	9.799999999937981	0.49999999952955093	0.2225203897681932	0.8265679952581608
5070	101	500000000	-1.2578627514565174e-06	-1.2578537139818602e-06	-1.9946933256424807e-07	0.999999999998398	0.0	0.0	0.0	2.465393771174382e-05	-2.465410501080473e-05	9.799999999937981	0.49999999952918606	0.22447152146831628	0.8442576743995457
5071	101	520000000	-1.2578627514565174e-06	-1.2578537139818602e-06	-1.9946933256424807e-07	0.999999999998398	0.0	0.0	0.0	2.465393771174382e-05	-2.465410501080473e-05	9.799999999937981	0.4999999995289474	0.2256494360407852	0.8305891149442488
5072	101	540000000	-1.2578627514565174e-06	-1.2578537139818602e-06	-1.9946933256424807e-07	0.999999999998398	0.0	0.0	0.0	2.465393771174382e-05	-2.465410501080473e-05	9.799999999937981	0.4999999995288282	0.22605690389908023	0.8197776049635627
5073	101	560000000	-1.2578627514565174e-06	-1.2578537139818602e-06	-1.9946933256424807e-07	0.999999999998398	0.0	0.0	0.0	2.465393771174382e-05	-2.465410501080473e-05	9.799999999937981	0.4999986558545009	0.22569685573790987	0.850841171302788
5074	101	580000000	-1.2578627514565174e-06	-1.2578537139818602e-06	-1.9946933256424807e-07	0.999999999998398	0.0	0.0	0.0	2.465393771174382e-05	-2.465410501080473e-05	9.799999999937981	0.4999986666250101	0.22456452803108498	0.8481046836356101
5075	101	600000000	-1.2578627514565174e-06	-1.2578537139818602e-06	-1.9946933256424807e-07	0.999999999998398	0.0	0.0	0.0	2.465393771174382e-05	-2.465410501080473e-05	9.799999999937981	0.4999986773397001	0.22265924083073932	0.8293263018296779
5076	101	620000000	-1.2578627514565174e-06	-1.2578537139818602e-06	-1.9946933256424807e-07	0.999999999998398	0.0	0.0	0.0	2.465393771174382e-05	-2.465410501080473e-05	9.799999999937981	0.49999868803821573	0.21997655528239898	0.8425463573273025
5077	101	640000000	-1.2578627514565174e-06	-1.2578537139818602e-06	-1.9946933256424807e-07	0.999999999998398	0.0	0.0	0.0	2.465393771174382e-05	-2.465410501080473e-05	9.799999999937981	0.49999869874807357	0.21651025053381476	0.83679417701624
5078	101	660000000	-1.2578627514565174e-06	-1.2578537139818602e-06	-1.9946933256424807e-07	0.999999999998398	0.0	0.0	0.0	2.465393771174382e-05	-2.465410501080473e-05	9.799999999937981	0.49999870949563213	0.2122523437587245	0.8370592443285086
5079	101	680000000	-1.2578627514565174e-06	-1.2578537139818602e-06	-1.9946933256424807e-07	0.999999999998398	0.0	0.0	0.0	2.465393771174382e-05	-2.465410501080473e-05	9.799999999937981	0.500000272987146	0.20719107553571545	0.8285242807482309
5080	101	700000000	-1.2578627514565174e-06	-1.2578537139818602e-06	-1.9946933256424807e-07	0.999999999998398	0.0	0.0	0.0	2.465393771174382e-05	-2.465410501080473e-05	9.799999999937981	0.49999875470572436	0.2013210183247745	0.8348145874735847
5081	101	720000000	-1.2578627514565174e-06	-1.2578537139818602e-06	-1.9946933256424807e-07	0.999999999998398	0.0	0.0	0.0	2.465393771174382e-05	-2.465410501080473e-05	9.799999999937981	0.49999876544606514	0.194623247176634	0.850797547527166
5082	101	740000000	-1.2578627514565174e-06	-1.2578537139818602e-06	-1.9946933256424807e-07	0.999999999998398	0.0	0.0	0.0	2.465393771174382e-05	-2.465410501080473e-05	9.799999999937981	0.500001177297854	0.18708283294026423	0.8295184196386645
5083	101	760000000	-1.2578627514565174e-06	-1.2578537139818602e-06	-1.9946933256424807e-07	0.999999999998398	0.0	0.0	0.0	2.465393771174382e-05	-2.465410501080473e-05	9.799999999937981	0.5000010757765444	0.17868791314080176	0.8354291734113973
5084	101	780000000	-1.2578627514565174e-06	-1.2578537139818602e-06	-1.9946933256424807e-07	0.999999999998398	0.0	0.0	0.0	2.465393771174382e-05	-2.465410501080473e-05	9.799999999937981	0.5000009519902044	0.16941861280967424	0.8551352503067354
5085	101	800000000	-1.2578627514565174e-06	-1.2578537139818602e-06	-1.9946933256424807e-07	0.999999999998398	0.0	0.0	0.0	2.465393771174382e-05	-2.465410501080473e-05	9.799999999937981	0.49999867796256153	0.1592579307268276	0.8601754229181475
5086	101	820000000	-1.2578627514565174e-06	-1.2578537139818602e-06	-1.9946933256424807e-07	0.999999999998398	0.0	0.0	0.0	2.465393771174382e-05	-2.465410501080473e-05	9.799999999937981	0.500001162522837	0.14817957357488543	0.8342940786516632
5087	101	840000000	-1.2578627514565174e-06	-1.2578537139818602e-06	-1.9946933256424807e-07	0.999999999998398	0.0	0.0	0.0	2.465393771174382e-05	-2.465410501080473e-05	9.799999999937981	0.5000003185179677	0.13616872411578118	0.856841331420178
5088	101	860000000	-1.2578627514565174e-06	-1.2578537139818602e-06	-1.9946933256424807e-07	0.999999999998398	0.0	0.0	0.0	2.465393771174382e-05	-2.465410501080473e-05	9.799999999937981	0.5000006522027672	0.12320075057859774	0.8607403876367835
5089	101	880000000	-1.2578627514565174e-06	-1.2578537139818602e-06	-1.9946933256424807e-07	0.999999999998398	0.0	0.0	0.0	2.465393771174382e-05	-2.465410501080473e-05	9.799999999937981	0.5000006041449135	0.10925321328239146	0.8742300427297154
5090	101	900000000	-1.2578627514565174e-06	-1.2578537139818602e-06	-1.9946933256424807e-07	0.999999999998398	0.0	0.0	0.0	2.465393771174382e-05	-2.465410501080473e-05	9.799999999937981	0.5000008493239004	0.09430312237123467	0.8730488300285626
5091	101	920000000	-1.2578627514565174e-06	-1.2578537139818602e-06	-1.9946933256424807e-07	0.999999999998398	0.0	0.0	0.0	2.465393771174382e-05	-2.465410501080473e-05	9.799999999937981	0.5000000002010814	0.07832719538767549	0.8634348449558027
5092	101	940000000	-1.2578627514565174e-06	-1.2578537139818602e-06	-1.9946933256424807e-07	0.999999999998398	0.0	0.0	0.0	2.465393771174382e-05	-2.465410501080473e-05	9.799999999937981	0.49999871692107406	0.061305816141197476	0.8580398649740735
5093	101	960000000	-1.2578627514565174e-06	-1.2578537139818602e-06	-1.9946933256424807e-07	0.999999999998398	0.0	0.0	0.0	2.465393771174382e-05	-2.465410501080473e-05	9.799999999937981	0.49999999966231	0.043209339247409106	0.8765440919883528
5094	101	980000000	-1.2578627514565174e-06	-1.2578537139818602e-06	-1.9946933256424807e-07	0.999999999998398	0.0	0.0	0.0	2.465393771174382e-05	-2.465410501080473e-05	9.799999999937981	0.4999999996534206	0.024023102312883595	0.85634393030226
5095	102	0	-1.2578627514565174e-06	-1.2578537139818602e-06	-1.9946933256424807e-07	0.999999999998398	0.0	0.0	0.0	2.465393771174382e-05	-2.465410501080473e-05	9.799999999937981	0.49999999964240055	0.0037257522641176793	0.8631340732683683
5096	102	20000000	-1.2578627514565174e-06	-1.2578537139818602e-06	-1.9946933256424807e-07	0.999999999998398	0.0	0.0	0.0	2.465393771174382e-05	-2.465410501080473e-05	9.799999999937981	0.49999999954924684	-0.011236424809783273	0.8826429933089008
5097	102	40000000	-1.2578627514565174e-06	-1.2578537139818602e-06	-1.9946933256424807e-07	0.999999999998398	0.0	0.0	0.0	2.465393771174382e-05	-2.465410501080473e-05	9.799999999937981	0.49999999954262325	-0.023875093822349345	0.8465808371536081
5098	102	60000000	-1.2578627514565174e-06	-1.2578537139818602e-06	-1.9946933256424807e-07	0.999999999998398	0.0	0.0	0.0	2.465393771174382e-05	-2.465410501080473e-05	9.799999999937981	0.4999999995368841	-0.03540923398751449	0.8862838946106683
5099	102	80000000	-1.2578627514565174e-06	-1.2578537139818602e-06	-1.9946933256424807e-07	0.999999999998398	0.0	0.0	0.0	2.465393771174382e-05	-2.465410501080473e-05	9.799999999937981	0.4999999995319429	-0.04585386839938188	0.8500387086098529
5100	102	100000000	-1.2578627514565174e-06	-1.2578537139818602e-06	-1.9946933256424807e-07	0.999999999998398	0.0	0.0	0.0	2.465393771174382e-05	-2.465410501080473e-05	9.799999999937981	0.49999999952771723	-0.05522357956661259	0.8571236077631338
5101	102	120000000	-1.2578627514565174e-06	-1.2578537139818602e-06	-1.9946933256424807e-07	0.999999999998398	0.0	0.0	0.0	2.465393771174382e-05	-2.465410501080473e-05	9.799999999937981	0.49999999952413193	-0.06353222560224203	0.8679174674612771
5102	102	140000000	-1.2578627514565174e-06	-1.2578537139818602e-06	-1.9946933256424807e-07	0.999999999998398	0.0	0.0	0.0	2.465393771174382e-05	-2.465410501080473e-05	9.799999999937981	0.49999999952111956	-0.07079269908093916	0.8586016394264788
5103	102	160000000	-1.2578627514565174e-06	-1.2578537139818602e-06	-1.9946933256424807e-07	0.999999999998398	0.0	0.0	0.0	2.465393771174382e-05	-2.465410501080473e-05	9.799999999937981	0.4999999995186204	-0.07701672395741017	0.8558027574889947
5104	102	180000000	-1.2578627514565174e-06	-1.2578537139818602e-06	-1.9946933256424807e-07	0.999999999998398	0.0	0.0	0.0	2.465393771174382e-05	-2.465410501080473e-05	9.799999999937981	0.4999999995165834	-0.0822146864491177	0.8650555555090468
5105	102	200000000	-1.2578627514565174e-06	-1.2578537139818602e-06	-1.9946933256424807e-07	0.999999999998398	0.0	0.0	0.0	2.465393771174382e-05	-2.465410501080473e-05	9.799999999937981	0.49999999951496554	-0.08639549630384323	0.8649641271299113
5106	102	220000000	-1.2578627514565174e-06	-1.2578537139818602e-06	-1.9946933256424807e-07	0.999999999998398	0.0	0.0	0.0	2.465393771174382e-05	-2.465410501080473e-05	9.799999999937981	0.4999999995137316	-0.08956647539024543	0.8613037502403993
5107	102	240000000	-1.2578627514565174e-06	-1.2578537139818602e-06	-1.9946933256424807e-07	0.999999999998398	0.0	0.0	0.0	2.465393771174382e-05	-2.465410501080473e-05	9.799999999937981	0.4999999995128539	-0.09173327106270739	0.8932455988302
5108	102	260000000	-1.2578627514565174e-06	-1.2578537139818602e-06	-1.9946933256424807e-07	0.999999999998398	0.0	0.0	0.0	2.465393771174382e-05	-2.465410501080473e-05	9.799999999937981	0.4999999995123123	-0.09289979225792531	0.8724640725293487
5109	102	280000000	-1.2578627514565174e-06	-1.2578537139818602e-06	-1.9946933256424807e-07	0.999999999998398	0.0	0.0	0.0	2.465393771174382e-05	-2.465410501080473e-05	9.799999999937981	0.4999999601463435	-0.09306816538933921	0.862940740656457
5110	102	300000000	-1.2578627514565174e-06	-1.2578537139818602e-06	-1.9946933256424807e-07	0.999999999998398	0.0	0.0	0.0	2.465393771174382e-05	-2.465410501080473e-05	9.799999999937981	0.500000989513365	-0.0922388086823738	0.8500751056879725
5111	102	320000000	-1.2578627514565174e-06	-1.2578537139818602e-06	-1.9946933256424807e-07	0.999999999998398	0.0	0.0	0.0	2.465393771174382e-05	-2.465410501080473e-05	9.799999999937981	0.5000009792272396	-0.09041005961768737	0.8698345163153821
5112	102	340000000	-1.2578627514565174e-06	-1.2578537139818602e-06	-1.9946933256424807e-07	0.999999999998398	0.0	0.0	0.0	2.465393771174382e-05	-2.465410501080473e-05	9.799999999937981	0.5000000000968589	-0.0875786357030734	0.872562689480742
5113	102	360000000	-1.2578627514565174e-06	-1.2578537139818602e-06	-1.9946933256424807e-07	0.999999999998398	0.0	0.0	0.0	2.465393771174382e-05	-2.465410501080473e-05	9.799999999937981	0.5000000000925517	-0.083739698680993	0.8724817128391508
5114	102	380000000	-1.2578627514565174e-06	-1.2578537139818602e-06	-1.9946933256424807e-07	0.999999999998398	0.0	0.0	0.0	2.465393771174382e-05	-2.465410501080473e-05	9.799999999937981	0.5000000000885537	-0.07888643350290733	0.8649017828543466
5115	102	400000000	-1.2578627514565174e-06	-1.2578537139818602e-06	-1.9946933256424807e-07	0.999999999998398	0.0	0.0	0.0	2.465393771174382e-05	-2.465410501080473e-05	9.799999999937981	0.4999990852667536	-0.07301293709271285	0.8642864259274217
5116	102	420000000	-1.2578627514565174e-06	-1.2578537139818602e-06	-1.9946933256424807e-07	0.999999999998398	0.0	0.0	0.0	2.465393771174382e-05	-2.465410501080473e-05	9.799999999937981	0.4999990948129054	-0.0661045037993149	0.8815677750851346
5117	102	440000000	-1.2578627514565174e-06	-1.2578537139818602e-06	-1.9946933256424807e-07	0.999999999998398	0.0	0.0	0.0	2.465393771174382e-05	-2.465410501080473e-05	9.799999999937981	0.4999991043344286	-0.0581523087919308	0.8566485660143285
5118	102	460000000	-1.2578627514565174e-06	-1.2578537139818602e-06	-1.9946933256424807e-07	0.999999999998398	0.0	0.0	0.0	2.465393771174382e-05	-2.465410501080473e-05	9.799999999937981	0.49999911383721163	-0.049143885987485696	0.8755088277818546
5119	102	480000000	-1.2578627514565174e-06	-1.2578537139818602e-06	-1.9946933256424807e-07	0.999999999998398	0.0	0.0	0.0	2.465393771174382e-05	-2.465410501080473e-05	9.799999999937981	0.49999981023938495	-0.03906310878451031	0.8542633180601368
5120	102	500000000	-1.2578627514565174e-06	-1.2578537139818602e-06	-1.9946933256424807e-07	0.999999999998398	0.0	0.0	0.0	2.465393771174382e-05	-2.465410501080473e-05	9.799999999937981	0.4999999991769955	-0.027900895578992443	0.8461123791086532
5121	102	520000000	-1.2578627514565174e-06	-1.2578537139818602e-06	-1.9946933256424807e-07	0.999999999998398	0.0	0.0	0.0	2.465393771174382e-05	-2.465410501080473e-05	9.799999999937981	0.4999999991715413	-0.015639787627154268	0.8848160692612775
5122	102	540000000	-1.2578627514565174e-06	-1.2578537139818602e-06	-1.9946933256424807e-07	0.999999999998398	0.0	0.0	0.0	2.465393771174382e-05	-2.465410501080473e-05	9.799999999937981	0.49999999916534094	-0.0022647291957798824	0.8411408507043521
5123	102	560000000	-1.2578627514565174e-06	-1.2578537139818602e-06	-1.9946933256424807e-07	0.999999999998398	0.0	0.0	0.0	2.465393771174382e-05	-2.465410501080473e-05	9.799999999937981	0.4999999994621917	0.007520442126195782	0.8394170635103939
5124	102	580000000	-1.2578627514565174e-06	-1.2578537139818602e-06	-1.9946933256424807e-07	0.999999999998398	0.0	0.0	0.0	2.465393771174382e-05	-2.465410501080473e-05	9.799999999937981	0.4999999994661227	0.015466023583872867	0.8638687058727588
5125	102	600000000	-1.2578627514565174e-06	-1.2578537139818602e-06	-1.9946933256424807e-07	0.999999999998398	0.0	0.0	0.0	2.465393771174382e-05	-2.465410501080473e-05	9.799999999937981	0.49999999946940993	0.02229922439939957	0.8699794300274886
5126	102	620000000	-1.2578627514565174e-06	-1.2578537139818602e-06	-1.9946933256424807e-07	0.999999999998398	0.0	0.0	0.0	2.465393771174382e-05	-2.465410501080473e-05	9.799999999937981	0.4999999994721103	0.028029319525797878	0.8624016321567841
5127	102	640000000	-1.2578627514565174e-06	-1.2578537139818602e-06	-1.9946933256424807e-07	0.999999999998398	0.0	0.0	0.0	2.465393771174382e-05	-2.465410501080473e-05	9.799999999937981	0.49999999947427376	0.0326644036145434	0.8594496482584856
5128	102	660000000	-1.2578627514565174e-06	-1.2578537139818602e-06	-1.9946933256424807e-07	0.999999999998398	0.0	0.0	0.0	2.465393771174382e-05	-2.465410501080473e-05	9.799999999937981	0.49999999947594165	0.03621123557931595	0.8581738973444761
5129	102	680000000	-1.2578627514565174e-06	-1.2578537139818602e-06	-1.9946933256424807e-07	0.999999999998398	0.0	0.0	0.0	2.465393771174382e-05	-2.465410501080473e-05	9.799999999937981	0.49999999947714735	0.038675116477981525	0.8587534385345446
5130	102	700000000	-1.2578627514565174e-06	-1.2578537139818602e-06	-1.9946933256424807e-07	0.999999999998398	0.0	0.0	0.0	2.465393771174382e-05	-2.465410501080473e-05	9.799999999937981	0.49999999947791574	0.04005979829420047	0.846844135970323
5131	102	720000000	-1.2578627514565174e-06	-1.2578537139818602e-06	-1.9946933256424807e-07	0.999999999998398	0.0	0.0	0.0	2.465393771174382e-05	-2.465410501080473e-05	9.799999999937981	0.5000004727882459	0.04036949429959255	0.883061380867165
5132	102	740000000	-1.2578627514565174e-06	-1.2578537139818602e-06	-1.9946933256424807e-07	0.999999999998398	0.0	0.0	0.0	2.465393771174382e-05	-2.465410501080473e-05	9.799999999937981	0.4999990081336241	0.03959866659482254	0.8724217596671316
5133	102	760000000	-1.2578627514565174e-06	-1.2578537139818602e-06	-1.9946933256424807e-07	0.999999999998398	0.0	0.0	0.0	2.465393771174382e-05	-2.465410501080473e-05	9.799999999937981	0.49999901907253663	0.03775200177170054	0.8694635807387963
5134	102	780000000	-1.2578627514565174e-06	-1.2578537139818602e-06	-1.9946933256424807e-07	0.999999999998398	0.0	0.0	0.0	2.465393771174382e-05	-2.465410501080473e-05	9.799999999937981	0.4999999988627025	0.034824646884004606	0.865992550699485
5135	102	800000000	-1.2578627514565174e-06	-1.2578537139818602e-06	-1.9946933256424807e-07	0.999999999998398	0.0	0.0	0.0	2.465393771174382e-05	-2.465410501080473e-05	9.799999999937981	0.499999998869592	0.030812583706967506	0.8655104693349902
5136	102	820000000	-1.2578627514565174e-06	-1.2578537139818602e-06	-1.9946933256424807e-07	0.999999999998398	0.0	0.0	0.0	2.465393771174382e-05	-2.465410501080473e-05	9.799999999937981	0.4999999988765951	0.02570973874732517	0.8771839725233153
5137	102	840000000	-1.2578627514565174e-06	-1.2578537139818602e-06	-1.9946933256424807e-07	0.999999999998398	0.0	0.0	0.0	2.465393771174382e-05	-2.465410501080473e-05	9.799999999937981	0.5000009124336351	0.019511323204456678	0.8682941057780811
5138	102	860000000	-1.2578627514565174e-06	-1.2578537139818602e-06	-1.9946933256424807e-07	0.999999999998398	0.0	0.0	0.0	2.465393771174382e-05	-2.465410501080473e-05	9.799999999937981	0.5000009024478587	0.012203777074735741	0.8618219916387645
5139	102	880000000	-1.2578627514565174e-06	-1.2578537139818602e-06	-1.9946933256424807e-07	0.999999999998398	0.0	0.0	0.0	2.465393771174382e-05	-2.465410501080473e-05	9.799999999937981	0.5000008925388336	0.003779918377613496	0.8635429157398835
5140	102	900000000	-1.2578627514565174e-06	-1.2578537139818602e-06	-1.9946933256424807e-07	0.999999999998398	0.0	0.0	0.0	2.465393771174382e-05	-2.465410501080473e-05	9.799999999937981	0.499999996535917	-0.0035967543244474374	0.839393582682293
5141	102	920000000	-1.2578627514565174e-06	-1.2578537139818602e-06	-1.9946933256424807e-07	0.999999999998398	0.0	0.0	0.0	2.465393771174382e-05	-2.465410501080473e-05	9.799999999937981	0.49999999612796275	-0.008783854393264146	0.8534120335150405
5142	102	940000000	-1.2578627514565174e-06	-1.2578537139818602e-06	-1.9946933256424807e-07	0.999999999998398	0.0	0.0	0.0	2.465393771174382e-05	-2.465410501080473e-05	9.799999999937981	0.4999999957656475	-0.012850453178317104	0.8689173802037673
5143	102	960000000	-1.2578627514565174e-06	-1.2578537139818602e-06	-1.9946933256424807e-07	0.999999999998398	0.0	0.0	0.0	2.465393771174382e-05	-2.465410501080473e-05	9.799999999937981	0.49999999543827517	-0.015802050986546915	0.8616868165597651
5144	102	980000000	-1.2578627514565174e-06	-1.2578537139818602e-06	-1.9946933256424807e-07	0.999999999998398	0.0	0.0	0.0	2.465393771174382e-05	-2.465410501080473e-05	9.799999999937981	0.49999999513583787	-0.01764273807345718	0.8492332594826206
5145	103	0	-1.2578627514565174e-06	-1.2578537139818602e-06	-1.9946933256424807e-07	0.999999999998398	0.0	0.0	0.0	2.465393771174382e-05	-2.465410501080473e-05	9.799999999937981	0.4999999948488452	-0.01837511283363224	0.8460004274820236
5146	103	20000000	-1.2578627514565174e-06	-1.2578537139818602e-06	-1.9946933256424807e-07	0.999999999998398	0.0	0.0	0.0	2.465393771174382e-05	-2.465410501080473e-05	9.799999999937981	0.4999999988361428	-0.017997630617617704	0.8569216534303202
5147	103	40000000	-1.2578627514565174e-06	-1.2578537139818602e-06	-1.9946933256424807e-07	0.999999999998398	0.0	0.0	0.0	2.465393771174382e-05	-2.465410501080473e-05	9.799999999937981	0.49999999884359553	-0.01651498454696229	0.8727409507501004
5148	103	60000000	-1.2578627514565174e-06	-1.2578537139818602e-06	-1.9946933256424807e-07	0.999999999998398	0.0	0.0	0.0	2.465393771174382e-05	-2.465410501080473e-05	9.799999999937981	0.5000009719839164	-0.013925103020158092	0.8673612973423163
5149	103	80000000	-1.2578627514565174e-06	-1.2578537139818602e-06	-1.9946933256424807e-07	0.999999999998398	0.0	0.0	0.0	2.465393771174382e-05	-2.465410501080473e-05	9.799999999937981	0.5000009611104665	-0.010219256272106842	0.8583883965636943
5150	103	100000000	-1.2578627514565174e-06	-1.2578537139818602e-06	-1.9946933256424807e-07	0.999999999998398	0.0	0.0	0.0	2.465393771174382e-05	-2.465410501080473e-05	9.799999999937981	0.500000950378025	-0.005395018433627174	0.8540034541049181
5151	103	120000000	-1.2578627514565174e-06	-1.2578537139818602e-06	-1.9946933256424807e-07	0.999999999998398	0.0	0.0	0.0	2.465393771174382e-05	-2.465410501080473e-05	9.799999999937981	0.5000000004212938	0.0003592300821875723	0.890333084693544
5152	103	140000000	-1.2578627514565174e-06	-1.2578537139818602e-06	-1.9946933256424807e-07	0.999999999998398	0.0	0.0	0.0	2.465393771174382e-05	-2.465410501080473e-05	9.799999999937981	0.4999999968803606	0.0040021973889771325	0.8671606249711197
5153	103	160000000	-1.2578627514565174e-06	-1.2578537139818602e-06	-1.9946933256424807e-07	0.999999999998398	0.0	0.0	0.0	2.465393771174382e-05	-2.465410501080473e-05	9.799999999937981	0.4999999965465295	0.006518469711969831	0.841128277061797
5154	103	180000000	-1.2578627514565174e-06	-1.2578537139818602e-06	-1.9946933256424807e-07	0.999999999998398	0.0	0.0	0.0	2.465393771174382e-05	-2.465410501080473e-05	9.799999999937981	0.49999999623458524	0.007911548501278624	0.8789330722618259
5155	103	200000000	-1.2578627514565174e-06	-1.2578537139818602e-06	-1.9946933256424807e-07	0.999999999998398	0.0	0.0	0.0	2.465393771174382e-05	-2.465410501080473e-05	9.799999999937981	0.5000000000861328	0.008183192333178532	0.8787142028111175
5156	103	220000000	-1.2578627514565174e-06	-1.2578537139818602e-06	-1.9946933256424807e-07	0.999999999998398	0.0	0.0	0.0	2.465393771174382e-05	-2.465410501080473e-05	9.799999999937981	0.4999999990368151	0.007334070383931481	0.8906811542173352
5157	103	240000000	-1.2578627514565174e-06	-1.2578537139818602e-06	-1.9946933256424807e-07	0.999999999998398	0.0	0.0	0.0	2.465393771174382e-05	-2.465410501080473e-05	9.799999999937981	0.499999999042993	0.005362921367997064	0.8604357261582283
5158	103	260000000	-1.2578627514565174e-06	-1.2578537139818602e-06	-1.9946933256424807e-07	0.999999999998398	0.0	0.0	0.0	2.465393771174382e-05	-2.465410501080473e-05	9.799999999937981	0.5000009678664136	0.002267322118689708	0.8613551329264126
5159	103	280000000	-1.2578627514565174e-06	-1.2578537139818602e-06	-1.9946933256424807e-07	0.999999999998398	0.0	0.0	0.0	2.465393771174382e-05	-2.465410501080473e-05	9.799999999937981	0.49999999947137325	-0.001140150179726688	0.8763372222969719
5160	103	300000000	-1.2578627514565174e-06	-1.2578537139818602e-06	-1.9946933256424807e-07	0.999999999998398	0.0	0.0	0.0	2.465393771174382e-05	-2.465410501080473e-05	9.799999999937981	0.4999999994724474	-0.0029621702039049824	0.8922903848409187
5161	103	320000000	-1.2578627514565174e-06	-1.2578537139818602e-06	-1.9946933256424807e-07	0.999999999998398	0.0	0.0	0.0	2.465393771174382e-05	-2.465410501080473e-05	9.799999999937981	0.4999999994730262	-0.0036562822733752533	0.8800545491938792
5162	103	340000000	-1.2578627514565174e-06	-1.2578537139818602e-06	-1.9946933256424807e-07	0.999999999998398	0.0	0.0	0.0	2.465393771174382e-05	-2.465410501080473e-05	9.799999999937981	0.4999990060400091	-0.003223597828491602	0.8826722575026319
5163	103	360000000	-1.2578627514565174e-06	-1.2578537139818602e-06	-1.9946933256424807e-07	0.999999999998398	0.0	0.0	0.0	2.465393771174382e-05	-2.465410501080473e-05	9.799999999937981	0.49999901705774025	-0.001663227670682226	0.8976298199339725
5164	103	380000000	-1.2578627514565174e-06	-1.2578537139818602e-06	-1.9946933256424807e-07	0.999999999998398	0.0	0.0	0.0	2.465393771174382e-05	-2.465410501080473e-05	9.799999999937981	0.4999999995066143	0.0005471073991555432	0.8662456873342693
5165	103	400000000	-1.2578627514565174e-06	-1.2578537139818602e-06	-1.9946933256424807e-07	0.999999999998398	0.0	0.0	0.0	2.465393771174382e-05	-2.465410501080473e-05	9.799999999937981	0.499999999505967	0.0014509668474293215	0.8537211816629997
5166	103	420000000	-1.2578627514565174e-06	-1.2578537139818602e-06	-1.9946933256424807e-07	0.999999999998398	0.0	0.0	0.0	2.465393771174382e-05	-2.465410501080473e-05	9.799999999937981	0.5000009963647474	0.0012276740321927593	0.8582720835599876
5167	103	440000000	-1.2578627514565174e-06	-1.2578537139818602e-06	-1.9946933256424807e-07	0.999999999998398	0.0	0.0	0.0	2.465393771174382e-05	-2.465410501080473e-05	9.799999999937981	0.49999999995673833	-9.038271184162451e-05	0.8558425914037013
5168	103	460000000	-1.2578627514565174e-06	-1.2578537139818602e-06	-1.9946933256424807e-07	0.999999999998398	0.0	0.0	0.0	2.465393771174382e-05	-2.465410501080473e-05	9.799999999937981	0.5000000990711225	-0.0006700294965993855	0.8490173776128876
5169	103	480000000	-1.2578627514565174e-06	-1.2578537139818602e-06	-1.9946933256424807e-07	0.999999999998398	0.0	0.0	0.0	2.465393771174382e-05	-2.465410501080473e-05	9.799999999937981	0.4999999990344635	-0.00011876004167050944	0.8664707440611322
5170	103	500000000	-1.2578627514565174e-06	-1.2578537139818602e-06	-1.9946933256424807e-07	0.999999999998398	0.0	0.0	0.0	2.465393771174382e-05	-2.465410501080473e-05	9.799999999937981	0.5000022834649459	0.0003091443674179315	0.8734520104008454
5171	103	520000000	-1.2578627514565174e-06	-1.2578537139818602e-06	-1.9946933256424807e-07	0.999999999998398	0.0	0.0	0.0	2.465393771174382e-05	-2.465410501080473e-05	9.799999999937981	0.500000000772858	-0.00018489567389096178	0.8422147151905264
5172	103	540000000	-1.2578627514565174e-06	-1.2578537139818602e-06	-1.9946933256424807e-07	0.999999999998398	0.0	0.0	0.0	2.465393771174382e-05	-2.465410501080473e-05	9.799999999937981	0.4999999994733268	3.955577547188087e-05	0.8817839503671941
5173	103	560000000	-1.2578627514565174e-06	-1.2578537139818602e-06	-1.9946933256424807e-07	0.999999999998398	0.0	0.0	0.0	2.465393771174382e-05	-2.465410501080473e-05	9.799999999937981	0.5000000000685075	-3.5940729906429255e-05	0.8693225368775884
5174	103	580000000	-1.2578627514565174e-06	-1.2578537139818602e-06	-1.9946933256424807e-07	0.999999999998398	0.0	0.0	0.0	2.465393771174382e-05	-2.465410501080473e-05	9.799999999937981	0.5000023151052392	-2.1491320057207338e-05	0.8521730920979627
5175	103	600000000	-1.2578627514565174e-06	-1.2578537139818602e-06	-1.9946933256424807e-07	0.999999999998398	0.0	0.0	0.0	2.465393771174382e-05	-2.465410501080473e-05	9.799999999937981	0.500003080657984	-2.218546228952e-05	0.8548189948385628
5176	103	620000000	-1.2578627514565174e-06	-1.2578537139818602e-06	-1.9946933256424807e-07	0.999999999998398	0.0	0.0	0.0	2.465393771174382e-05	-2.465410501080473e-05	9.799999999937981	0.5000024205919792	-1.970230295236995e-05	0.8716495527958895
5177	103	640000000	-1.2578627514565174e-06	-1.2578537139818602e-06	-1.9946933256424807e-07	0.999999999998398	0.0	0.0	0.0	2.465393771174382e-05	-2.465410501080473e-05	9.799999999937981	0.5000024205913317	-1.9702306775366983e-05	0.8436452506740925
5178	103	660000000	-1.2578627514565174e-06	-1.2578537139818602e-06	-1.9946933256424807e-07	0.999999999998398	0.0	0.0	0.0	2.465393771174382e-05	-2.465410501080473e-05	9.799999999937981	0.5000024205906844	-1.9702310598349644e-05	0.8672352662042072
5179	103	680000000	-1.2578627514565174e-06	-1.2578537139818602e-06	-1.9946933256424807e-07	0.999999999998398	0.0	0.0	0.0	2.465393771174382e-05	-2.465410501080473e-05	9.799999999937981	0.5000024205900372	-1.970231442131779e-05	0.8477658845695693
5180	103	700000000	-1.2578627514565174e-06	-1.2578537139818602e-06	-1.9946933256424807e-07	0.999999999998398	0.0	0.0	0.0	2.465393771174382e-05	-2.465410501080473e-05	9.799999999937981	0.5000024205893896	-1.9702318244271477e-05	0.8659071847121828
5181	103	720000000	-1.2578627514565174e-06	-1.2578537139818602e-06	-1.9946933256424807e-07	0.999999999998398	0.0	0.0	0.0	2.465393771174382e-05	-2.465410501080473e-05	9.799999999937981	0.5000024205887423	-1.97023220672107e-05	0.8527485098752893
5182	103	740000000	-1.2578627514565174e-06	-1.2578537139818602e-06	-1.9946933256424807e-07	0.999999999998398	0.0	0.0	0.0	2.465393771174382e-05	-2.465410501080473e-05	9.799999999937981	0.5000024205880952	-1.970232589013548e-05	0.8549931172435726
5183	103	760000000	-1.2578627514565174e-06	-1.2578537139818602e-06	-1.9946933256424807e-07	0.999999999998398	0.0	0.0	0.0	2.465393771174382e-05	-2.465410501080473e-05	9.799999999937981	0.5000024205874477	-1.9702329713045825e-05	0.885040975300433
5184	103	780000000	-1.2578627514565174e-06	-1.2578537139818602e-06	-1.9946933256424807e-07	0.999999999998398	0.0	0.0	0.0	2.465393771174382e-05	-2.465410501080473e-05	9.799999999937981	0.5000024205868006	-1.9702333535941737e-05	0.8921048166436438
5185	103	800000000	-1.2578627514565174e-06	-1.2578537139818602e-06	-1.9946933256424807e-07	0.999999999998398	0.0	0.0	0.0	2.465393771174382e-05	-2.465410501080473e-05	9.799999999937981	0.5000024205861532	-1.9702337358823157e-05	0.8679082020144804
5186	103	820000000	-1.2578627514565174e-06	-1.2578537139818602e-06	-1.9946933256424807e-07	0.999999999998398	0.0	0.0	0.0	2.465393771174382e-05	-2.465410501080473e-05	9.799999999937981	0.5000024205855058	-1.9702341181690134e-05	0.8674295373859259
5187	103	840000000	-1.2578627514565174e-06	-1.2578537139818602e-06	-1.9946933256424807e-07	0.999999999998398	0.0	0.0	0.0	2.465393771174382e-05	-2.465410501080473e-05	9.799999999937981	0.5000024205848587	-1.970234500454268e-05	0.8683824767965929
5188	103	860000000	-1.2578627514565174e-06	-1.2578537139818602e-06	-1.9946933256424807e-07	0.999999999998398	0.0	0.0	0.0	2.465393771174382e-05	-2.465410501080473e-05	9.799999999937981	0.5000024205842114	-1.9702348827380764e-05	0.8689940767463353
5189	103	880000000	-1.2578627514565174e-06	-1.2578537139818602e-06	-1.9946933256424807e-07	0.999999999998398	0.0	0.0	0.0	2.465393771174382e-05	-2.465410501080473e-05	9.799999999937981	0.5000024205835641	-1.970235265020442e-05	0.8702407842047224
5190	103	900000000	-1.2578627514565174e-06	-1.2578537139818602e-06	-1.9946933256424807e-07	0.999999999998398	0.0	0.0	0.0	2.465393771174382e-05	-2.465410501080473e-05	9.799999999937981	0.500002420582917	-1.9702356473013633e-05	0.8542586929676547
5191	103	920000000	-1.2578627514565174e-06	-1.2578537139818602e-06	-1.9946933256424807e-07	0.999999999998398	0.0	0.0	0.0	2.465393771174382e-05	-2.465410501080473e-05	9.799999999937981	0.5000024205822695	-1.970236029580841e-05	0.8789234961940294
5192	103	940000000	-1.2578627514565174e-06	-1.2578537139818602e-06	-1.9946933256424807e-07	0.999999999998398	0.0	0.0	0.0	2.465393771174382e-05	-2.465410501080473e-05	9.799999999937981	0.5000024205816225	-1.970236411858872e-05	0.8749483608040812
5193	103	960000000	-1.2578627514565174e-06	-1.2578537139818602e-06	-1.9946933256424807e-07	0.999999999998398	0.0	0.0	0.0	2.465393771174382e-05	-2.465410501080473e-05	9.799999999937981	0.5000024205809751	-1.970236794135461e-05	0.8550989656891325
5194	103	980000000	-1.2578627514565174e-06	-1.2578537139818602e-06	-1.9946933256424807e-07	0.999999999998398	0.0	0.0	0.0	2.465393771174382e-05	-2.465410501080473e-05	9.799999999937981	0.5000024205803278	-1.9702371764106108e-05	0.8594620067342097
5195	104	0	-1.2578627514565174e-06	-1.2578537139818602e-06	-1.9946933256424807e-07	0.999999999998398	0.0	0.0	0.0	2.465393771174382e-05	-2.465410501080473e-05	9.799999999937981	0.5000024205796805	-1.9702375586843133e-05	0.8587787348604403
5196	104	20000000	-1.2578627514565174e-06	-1.2578537139818602e-06	-1.9946933256424807e-07	0.999999999998398	0.0	0.0	0.0	2.465393771174382e-05	-2.465410501080473e-05	9.799999999937981	0.5000024205790333	-1.970237940956572e-05	0.8712527993793506
5197	104	40000000	-1.2578627514565174e-06	-1.2578537139818602e-06	-1.9946933256424807e-07	0.999999999998398	0.0	0.0	0.0	2.465393771174382e-05	-2.465410501080473e-05	9.799999999937981	0.5000024205783862	-1.9702383232273832e-05	0.8530183644528446
5198	104	60000000	-1.2578627514565174e-06	-1.2578537139818602e-06	-1.9946933256424807e-07	0.999999999998398	0.0	0.0	0.0	2.465393771174382e-05	-2.465410501080473e-05	9.799999999937981	0.5000024205777389	-1.9702387054967496e-05	0.8782451438500146
5199	104	80000000	-1.2578627514565174e-06	-1.2578537139818602e-06	-1.9946933256424807e-07	0.999999999998398	0.0	0.0	0.0	2.465393771174382e-05	-2.465410501080473e-05	9.799999999937981	0.5000024205770917	-1.9702390877646723e-05	0.8663981332679207
5200	104	100000000	-1.2578627514565174e-06	-1.2578537139818602e-06	-1.9946933256424807e-07	0.999999999998398	0.0	0.0	0.0	2.465393771174382e-05	-2.465410501080473e-05	9.799999999937981	0.5000024205764443	-1.970239470031147e-05	0.8583144473837717
5201	104	120000000	-1.2578627514565174e-06	-1.2578537139818602e-06	-1.9946933256424807e-07	0.999999999998398	0.0	0.0	0.0	2.465393771174382e-05	-2.465410501080473e-05	9.799999999937981	0.5000024205757972	-1.970239852296179e-05	0.8790559806502193
5202	104	140000000	-1.2578627514565174e-06	-1.2578537139818602e-06	-1.9946933256424807e-07	0.999999999998398	0.0	0.0	0.0	2.465393771174382e-05	-2.465410501080473e-05	9.799999999937981	0.50000242057515	-1.97024023455977e-05	0.8668672547217697
5203	104	160000000	-1.2578627514565174e-06	-1.2578537139818602e-06	-1.9946933256424807e-07	0.999999999998398	0.0	0.0	0.0	2.465393771174382e-05	-2.465410501080473e-05	9.799999999937981	0.500002420574503	-1.970240616821913e-05	0.8547424767080476
5204	104	180000000	-1.2578627514565174e-06	-1.2578537139818602e-06	-1.9946933256424807e-07	0.999999999998398	0.0	0.0	0.0	2.465393771174382e-05	-2.465410501080473e-05	9.799999999937981	0.5000024205738557	-1.9702409990826146e-05	0.8648781971667889
5205	104	200000000	-1.2578627514565174e-06	-1.2578537139818602e-06	-1.9946933256424807e-07	0.999999999998398	0.0	0.0	0.0	2.465393771174382e-05	-2.465410501080473e-05	9.799999999937981	0.5000024205732084	-1.9702413813418728e-05	0.8744082654703687
5206	104	220000000	-1.2578627514565174e-06	-1.2578537139818602e-06	-1.9946933256424807e-07	0.999999999998398	0.0	0.0	0.0	2.465393771174382e-05	-2.465410501080473e-05	9.799999999937981	0.5000024205725614	-1.9702417635996863e-05	0.8732463910988344
5207	104	240000000	-1.2578627514565174e-06	-1.2578537139818602e-06	-1.9946933256424807e-07	0.999999999998398	0.0	0.0	0.0	2.465393771174382e-05	-2.465410501080473e-05	9.799999999937981	0.5000024205719142	-1.9702421458560545e-05	0.85349163589953
5208	104	260000000	-1.2578627514565174e-06	-1.2578537139818602e-06	-1.9946933256424807e-07	0.999999999998398	0.0	0.0	0.0	2.465393771174382e-05	-2.465410501080473e-05	9.799999999937981	0.500002420571267	-1.9702425281109772e-05	0.8697710170141794
5209	104	280000000	-1.2578627514565174e-06	-1.2578537139818602e-06	-1.9946933256424807e-07	0.999999999998398	0.0	0.0	0.0	2.465393771174382e-05	-2.465410501080473e-05	9.799999999937981	0.5000024205706199	-1.9702429103644583e-05	0.8467139085458177
5210	104	300000000	-1.2578627514565174e-06	-1.2578537139818602e-06	-1.9946933256424807e-07	0.999999999998398	0.0	0.0	0.0	2.465393771174382e-05	-2.465410501080473e-05	9.799999999937981	0.5000024205699727	-1.970243292616496e-05	0.8745153525185322
5211	104	320000000	-1.2578627514565174e-06	-1.2578537139818602e-06	-1.9946933256424807e-07	0.999999999998398	0.0	0.0	0.0	2.465393771174382e-05	-2.465410501080473e-05	9.799999999937981	0.5000024205693255	-1.9702436748670875e-05	0.8524152525938958
5212	104	340000000	-1.2578627514565174e-06	-1.2578537139818602e-06	-1.9946933256424807e-07	0.999999999998398	0.0	0.0	0.0	2.465393771174382e-05	-2.465410501080473e-05	9.799999999937981	0.5000024205686785	-1.970244057116233e-05	0.8655999055671381
5213	104	360000000	-1.2578627514565174e-06	-1.2578537139818602e-06	-1.9946933256424807e-07	0.999999999998398	0.0	0.0	0.0	2.465393771174382e-05	-2.465410501080473e-05	9.799999999937981	0.5000024205680312	-1.9702444393639385e-05	0.8648642154002083
5214	104	380000000	-1.2578627514565174e-06	-1.2578537139818602e-06	-1.9946933256424807e-07	0.999999999998398	0.0	0.0	0.0	2.465393771174382e-05	-2.465410501080473e-05	9.799999999937981	0.5000024205673842	-1.9702448216101965e-05	0.8910015048800927
5215	104	400000000	-1.2578627514565174e-06	-1.2578537139818602e-06	-1.9946933256424807e-07	0.999999999998398	0.0	0.0	0.0	2.465393771174382e-05	-2.465410501080473e-05	9.799999999937981	0.500002420566737	-1.9702452038550077e-05	0.8590908187645218
5216	104	420000000	-1.2578627514565174e-06	-1.2578537139818602e-06	-1.9946933256424807e-07	0.999999999998398	0.0	0.0	0.0	2.465393771174382e-05	-2.465410501080473e-05	9.799999999937981	0.50000242056609	-1.970245586098379e-05	0.86885699518473
5217	104	440000000	-1.2578627514565174e-06	-1.2578537139818602e-06	-1.9946933256424807e-07	0.999999999998398	0.0	0.0	0.0	2.465393771174382e-05	-2.465410501080473e-05	9.799999999937981	0.5000024205654429	-1.9702459683403005e-05	0.8599135096337291
5218	104	460000000	-1.2578627514565174e-06	-1.2578537139818602e-06	-1.9946933256424807e-07	0.999999999998398	0.0	0.0	0.0	2.465393771174382e-05	-2.465410501080473e-05	9.799999999937981	0.5000024205647957	-1.9702463505807797e-05	0.8857282185628577
5219	104	480000000	-1.2578627514565174e-06	-1.2578537139818602e-06	-1.9946933256424807e-07	0.999999999998398	0.0	0.0	0.0	2.465393771174382e-05	-2.465410501080473e-05	9.799999999937981	0.5000024205641487	-1.970246732819818e-05	0.8578898878643282
5220	104	500000000	-1.2578627514565174e-06	-1.2578537139818602e-06	-1.9946933256424807e-07	0.999999999998398	0.0	0.0	0.0	2.465393771174382e-05	-2.465410501080473e-05	9.799999999937981	0.5000024205635016	-1.9702471150574107e-05	0.8643836933890551
5221	104	520000000	-1.2578627514565174e-06	-1.2578537139818602e-06	-1.9946933256424807e-07	0.999999999998398	0.0	0.0	0.0	2.465393771174382e-05	-2.465410501080473e-05	9.799999999937981	0.5000024205628546	-1.97024749729356e-05	0.8871942100767174
5222	104	540000000	-1.2578627514565174e-06	-1.2578537139818602e-06	-1.9946933256424807e-07	0.999999999998398	0.0	0.0	0.0	2.465393771174382e-05	-2.465410501080473e-05	9.799999999937981	0.5000024205622073	-1.9702478795282646e-05	0.8470264189506042
5223	104	560000000	-1.2578627514565174e-06	-1.2578537139818602e-06	-1.9946933256424807e-07	0.999999999998398	0.0	0.0	0.0	2.465393771174382e-05	-2.465410501080473e-05	9.799999999937981	0.5000024205615604	-1.9702482617615246e-05	0.8580871103203616
5224	104	580000000	-1.2578627514565174e-06	-1.2578537139818602e-06	-1.9946933256424807e-07	0.999999999998398	0.0	0.0	0.0	2.465393771174382e-05	-2.465410501080473e-05	9.799999999937981	0.5000024205609132	-1.970248643993344e-05	0.8812456131787347
5225	104	600000000	-1.2578627514565174e-06	-1.2578537139818602e-06	-1.9946933256424807e-07	0.999999999998398	0.0	0.0	0.0	2.465393771174382e-05	-2.465410501080473e-05	9.799999999937981	0.5000024205602661	-1.970249026223715e-05	0.8691736717790447
5226	104	620000000	-1.2578627514565174e-06	-1.2578537139818602e-06	-1.9946933256424807e-07	0.999999999998398	0.0	0.0	0.0	2.465393771174382e-05	-2.465410501080473e-05	9.799999999937981	0.5000024205596192	-1.9702494084526428e-05	0.877951223273383
5227	104	640000000	-1.2578627514565174e-06	-1.2578537139818602e-06	-1.9946933256424807e-07	0.999999999998398	0.0	0.0	0.0	2.465393771174382e-05	-2.465410501080473e-05	9.799999999937981	0.500002420558972	-1.9702497906801308e-05	0.8559073675711178
5228	104	660000000	-1.2578627514565174e-06	-1.2578537139818602e-06	-1.9946933256424807e-07	0.999999999998398	0.0	0.0	0.0	2.465393771174382e-05	-2.465410501080473e-05	9.799999999937981	0.5000024205583251	-1.970250172906171e-05	0.8534659877792707
5229	104	680000000	-1.2578627514565174e-06	-1.2578537139818602e-06	-1.9946933256424807e-07	0.999999999998398	0.0	0.0	0.0	2.465393771174382e-05	-2.465410501080473e-05	9.799999999937981	0.500002420557678	-1.9702505551307677e-05	0.8550554609927622
5230	104	700000000	-1.2578627514565174e-06	-1.2578537139818602e-06	-1.9946933256424807e-07	0.999999999998398	0.0	0.0	0.0	2.465393771174382e-05	-2.465410501080473e-05	9.799999999937981	0.5000024205570309	-1.9702509373539176e-05	0.8477373302273643
5231	104	720000000	-1.2578627514565174e-06	-1.2578537139818602e-06	-1.9946933256424807e-07	0.999999999998398	0.0	0.0	0.0	2.465393771174382e-05	-2.465410501080473e-05	9.799999999937981	0.500002420556384	-1.9702513195756296e-05	0.8644149268123604
5232	104	740000000	-1.2578627514565174e-06	-1.2578537139818602e-06	-1.9946933256424807e-07	0.999999999998398	0.0	0.0	0.0	2.465393771174382e-05	-2.465410501080473e-05	9.799999999937981	0.500002420555737	-1.970251701795894e-05	0.852721833667285
5233	104	760000000	-1.2578627514565174e-06	-1.2578537139818602e-06	-1.9946933256424807e-07	0.999999999998398	0.0	0.0	0.0	2.465393771174382e-05	-2.465410501080473e-05	9.799999999937981	0.5000024205550899	-1.9702520840147133e-05	0.8639016349505247
5234	104	780000000	-1.2578627514565174e-06	-1.2578537139818602e-06	-1.9946933256424807e-07	0.999999999998398	0.0	0.0	0.0	2.465393771174382e-05	-2.465410501080473e-05	9.799999999937981	0.500002420554443	-1.9702524662320885e-05	0.8540964954144834
5235	104	800000000	-1.2578627514565174e-06	-1.2578537139818602e-06	-1.9946933256424807e-07	0.999999999998398	0.0	0.0	0.0	2.465393771174382e-05	-2.465410501080473e-05	9.799999999937981	0.5000024205537961	-1.9702528484480247e-05	0.8720819689914792
5236	104	820000000	-1.2578627514565174e-06	-1.2578537139818602e-06	-1.9946933256424807e-07	0.999999999998398	0.0	0.0	0.0	2.465393771174382e-05	-2.465410501080473e-05	9.799999999937981	0.5000024205531489	-1.9702532306625155e-05	0.8596352483261382
5237	104	840000000	-1.2578627514565174e-06	-1.2578537139818602e-06	-1.9946933256424807e-07	0.999999999998398	0.0	0.0	0.0	2.465393771174382e-05	-2.465410501080473e-05	9.799999999937981	0.500002420552502	-1.9702536128755667e-05	0.874541965466101
5238	104	860000000	-1.2578627514565174e-06	-1.2578537139818602e-06	-1.9946933256424807e-07	0.999999999998398	0.0	0.0	0.0	2.465393771174382e-05	-2.465410501080473e-05	9.799999999937981	0.500002420551855	-1.9702539950871753e-05	0.8747694566945675
5239	104	880000000	-1.2578627514565174e-06	-1.2578537139818602e-06	-1.9946933256424807e-07	0.999999999998398	0.0	0.0	0.0	2.465393771174382e-05	-2.465410501080473e-05	9.799999999937981	0.5000024205512079	-1.970254377297334e-05	0.8645486268049498
5240	104	900000000	-1.2578627514565174e-06	-1.2578537139818602e-06	-1.9946933256424807e-07	0.999999999998398	0.0	0.0	0.0	2.465393771174382e-05	-2.465410501080473e-05	9.799999999937981	0.500002420550561	-1.970254759506052e-05	0.8580303708470273
5241	104	920000000	-1.2578627514565174e-06	-1.2578537139818602e-06	-1.9946933256424807e-07	0.999999999998398	0.0	0.0	0.0	2.465393771174382e-05	-2.465410501080473e-05	9.799999999937981	0.500002420549914	-1.9702551417133263e-05	0.8557813166495809
5242	104	940000000	-1.2578627514565174e-06	-1.2578537139818602e-06	-1.9946933256424807e-07	0.999999999998398	0.0	0.0	0.0	2.465393771174382e-05	-2.465410501080473e-05	9.799999999937981	0.500002420549267	-1.9702555239191523e-05	0.8813442357053946
5243	104	960000000	-1.2578627514565174e-06	-1.2578537139818602e-06	-1.9946933256424807e-07	0.999999999998398	0.0	0.0	0.0	2.465393771174382e-05	-2.465410501080473e-05	9.799999999937981	0.5000024205486201	-1.9702559061235398e-05	0.8462513246460759
5244	104	980000000	-1.2578627514565174e-06	-1.2578537139818602e-06	-1.9946933256424807e-07	0.999999999998398	0.0	0.0	0.0	2.465393771174382e-05	-2.465410501080473e-05	9.799999999937981	0.5000024205479731	-1.9702562883264825e-05	0.8949543608222219
5245	105	0	-1.2578627514565174e-06	-1.2578537139818602e-06	-1.9946933256424807e-07	0.999999999998398	0.0	0.0	0.0	2.465393771174382e-05	-2.465410501080473e-05	9.799999999937981	0.5000024205473264	-1.9702566705279816e-05	0.8951768005350204
5246	105	20000000	-1.2578627514565174e-06	-1.2578537139818602e-06	-1.9946933256424807e-07	0.999999999998398	0.0	0.0	0.0	2.465393771174382e-05	-2.465410501080473e-05	9.799999999937981	0.5000024205466793	-1.9702570527280362e-05	0.8383431451792547
