sequence	time_seconds	time_nseconds	orientation_x	orientation_y	orientation_z	orientation_w	angular_velocity_x	angular_velocity_y	angular_velocity_z	linear_acceleration_x	linear_acceleration_y	linear_acceleration_z	mag_x	mag_y	mag_z
17076	302	280000000	2.623441831951771e-20	-6.386268168320773e-20	-5.3311021036301964e-18	1.0	-5.494951088609909e-15	-9.148844802165987e-11	-2.8823084655292504e-13	-6.22162262797317e-15	-2.5681422462392066e-15	9.800000000001697	0.5000000000000001	5.285662758193778e-18	-0.8687723602598316
17077	302	300000000	2.5303585275634925e-20	-6.124824357227943e-20	-5.333187743719529e-18	1.0	0.0	0.0	0.0	7.667453797875667e-17	8.109835307547239e-17	9.8	0.5000000000000001	5.289360648408479e-18	-0.8837240061556054
17078	302	320000000	2.7014425119778442e-20	-6.421927150915065e-20	-5.3352748426534405e-18	1.0	0.0	0.0	0.0	-1.1937375360684982e-16	-8.822235872613442e-17	9.8	0.5000000000000001	5.288484485808721e-18	-0.841598479165324
17079	302	340000000	2.5952533239281218e-20	-6.111136751831739e-20	-5.337360508236443e-18	1.0	0.0	0.0	0.0	1.2371518186834275e-16	-4.654087421031308e-18	9.8	0.5000000000000001	5.292409402080889e-18	-0.8881112486181646
17080	302	360000000	2.6545516543429902e-20	-6.382844430217028e-20	-5.339448245380531e-18	1.0	0.0	0.0	0.0	-7.730836644125809e-17	-5.852313670704991e-17	9.8	0.5000000000000001	5.293470062014152e-18	-0.8475719228535535
17081	302	380000000	2.5805931375082273e-20	-6.389555269380932e-20	-5.341534459924642e-18	1.0	0.0	0.0	0.0	-1.439929864704386e-16	6.396737652774393e-18	9.8	0.5000000000000001	5.296837275646365e-18	-0.8495398851496971
17082	302	400000000	2.605325696890034e-20	-6.278629255526316e-20	-5.343620784246435e-18	1.0	0.0	0.0	0.0	1.327504012768488e-16	-6.444240219647467e-17	9.8	0.5000000000000001	5.298495219473653e-18	-0.8500893828219123
17083	302	420000000	2.6218306029381757e-20	-6.142796684389541e-20	-5.345706598664095e-18	1.0	0.0	0.0	0.0	5.416736118964574e-17	8.040198357707164e-17	9.8	0.5000000000000001	5.300295160532818e-18	-0.8776605266442953
17084	302	440000000	2.6172806905189026e-20	-6.36113990306502e-20	-5.347793079890391e-18	1.0	0.0	0.0	0.0	-9.042496031406169e-17	5.821478441932893e-17	9.8	0.5000000000000001	5.3024604485539154e-18	-0.8641160844187458
17085	302	460000000	2.6971197951137385e-20	-6.251711465205124e-20	-5.349879252989297e-18	1.0	0.0	0.0	0.0	-7.744793914489378e-18	-1.2180057394606834e-16	9.8	0.5000000000000001	5.303163767796931e-18	-0.8679026997903408
17086	302	480000000	2.5710552811222405e-20	-6.233321834380887e-20	-5.351965066231572e-18	1.0	0.0	0.0	0.0	9.029301265464874e-17	7.014205404110933e-17	9.8	0.5000000000000001	5.307433082471853e-18	-0.8545024752397328
17087	302	500000000	2.6773062979335146e-20	-6.18914631092225e-20	-5.3540511887226694e-18	1.0	0.0	0.0	0.0	-2.796409551802211e-17	3.678623986357547e-17	9.8	0.5000000000000001	5.307678883368221e-18	-0.8516471422571266
17088	302	520000000	2.589359748638195e-20	-6.237659874904529e-20	-5.356137575554028e-18	1.0	0.0	0.0	0.0	2.8397894860513016e-18	-2.81565279274203e-17	9.8	0.5000000000000001	5.311288549116878e-18	-0.833533062601537
17089	302	540000000	2.6590535319325244e-20	-6.376398296940023e-20	-5.358224480860266e-18	1.0	0.0	0.0	0.0	-5.728694395908401e-17	-8.561279110751619e-18	9.8	0.5000000000000001	5.3121683226867414e-18	-0.8616367633344261
17090	302	560000000	2.7330579365362935e-20	-6.400486959416819e-20	-5.360310846690687e-18	1.0	0.0	0.0	0.0	-3.616402254157791e-17	-1.092738576930349e-16	9.8	0.5000000000000001	5.3129728946295865e-18	-0.878112682482601
17091	302	580000000	2.5093616681797068e-20	-6.273435913277945e-20	-5.362397409959266e-18	1.0	0.0	0.0	0.0	2.5347776444807827e-17	1.9075204009792414e-16	9.8	0.5000000000000001	5.318933990920737e-18	-0.8848652497465938
17092	302	600000000	2.5918801872050967e-20	-6.207657249686723e-20	-5.364484438697449e-18	1.0	0.0	0.0	0.0	1.0156361818045274e-16	-5.113021327900037e-17	9.8	0.5000000000000001	5.319591756983747e-18	-0.887544358760611
17093	302	620000000	2.688989223945918e-20	-6.245132813866793e-20	-5.36657113715783e-18	1.0	0.0	0.0	0.0	-1.0344004279288522e-16	-7.77502037906357e-17	9.8	0.5000000000000001	5.319996477589037e-18	-0.8626066009679355
17094	302	640000000	2.574180452585168e-20	-6.172400202507342e-20	-5.368657192025408e-18	1.0	0.0	0.0	0.0	1.0142767852125534e-16	7.416834170589105e-17	9.8	0.5000000000000001	5.324071078708128e-18	-0.8477086970080437
17095	302	660000000	2.6081360942132993e-20	-6.260573243277015e-20	-5.370744495298705e-18	1.0	0.0	0.0	0.0	-4.358475202315221e-17	-7.21986694351849e-17	9.8	0.5000000000000001	5.32557025301639e-18	-0.8771836061732865
17096	302	680000000	2.656535215977681e-20	-6.122102721727192e-20	-5.372831142275291e-18	1.0	0.0	0.0	0.0	5.585182803106698e-17	-1.9210326245609088e-17	9.8	0.5000000000000001	5.3268186026136e-18	-0.8678527896657778
17097	302	700000000	2.565731257635219e-20	-6.31561847311516e-20	-5.374917168770854e-18	1.0	0.0	0.0	0.0	-9.645137487668787e-17	1.2349161656679827e-16	9.8	0.5000000000000001	5.330477399802938e-18	-0.8756442830932328
17098	302	720000000	2.6991817442902958e-20	-6.245117451438448e-20	-5.37700369738937e-18	1.0	0.0	0.0	0.0	5.2271206052830295e-17	-1.4855558388198084e-16	9.8	0.5000000000000001	5.33025249818964e-18	-0.8556696446092634
17099	302	740000000	2.639439487332353e-20	-6.246863501081841e-20	-5.3790895007747676e-18	1.0	0.0	0.0	0.0	7.860830311630793e-17	6.706333072546156e-17	9.8	0.5000000000000001	5.3333730678191375e-18	-0.8681659084403273
17100	302	760000000	2.558180975843011e-20	-6.100639800213546e-20	-5.381175350368035e-18	1.0	0.0	0.0	0.0	8.927423443626e-18	1.3807892020689908e-16	9.8	0.5000000000000001	5.3368663561168745e-18	-0.8917938717997627
17101	302	780000000	2.7042122353974232e-20	-6.249521037767447e-20	-5.383261920516726e-18	1.0	0.0	0.0	0.0	-1.2076663972529477e-17	-8.261066962260112e-17	9.8	0.5000000000000001	5.33642359065515e-18	-0.8651243700774145
17102	302	800000000	2.754036191318672e-20	-6.394568374945416e-20	-5.385347788331807e-18	1.0	0.0	0.0	0.0	-1.5556800713467393e-16	-6.123917218097324e-18	9.8	0.5000000000000001	5.337646482239334e-18	-0.8520777602754469
17103	302	820000000	2.6357595594007892e-20	-6.258111171941418e-20	-5.387433855965339e-18	1.0	0.0	0.0	0.0	1.2785345625674867e-16	-9.057830230977775e-17	9.8	0.5000000000000001	5.3417811612311655e-18	-0.8706558606356979
17104	302	840000000	2.6484628941257412e-20	-6.245407853675152e-20	-5.389521093710348e-18	1.0	0.0	0.0	0.0	-4.753749512664702e-17	2.6843510360629752e-17	9.8	0.5000000000000001	5.3436483707644824e-18	-0.8692240137011362
17105	302	860000000	2.572487230768213e-20	-6.249951732102026e-20	-5.391607828048619e-18	1.0	0.0	0.0	0.0	4.0474791654667323e-17	1.2131303402956332e-16	9.8	0.5000000000000001	5.3470510421934934e-18	-0.8572394004635991
17106	302	880000000	2.7036773423572518e-20	-6.275602232148979e-20	-5.393694237092119e-18	1.0	0.0	0.0	0.0	-1.2758282056934785e-17	-5.491756046170231e-17	9.8	0.5000000000000001	5.346865171849765e-18	-0.8753274786718341
17107	302	900000000	2.5422786587197844e-20	-6.207685194103012e-20	-5.395781192880894e-18	1.0	0.0	0.0	0.0	2.0189307163994475e-17	-7.429912447498677e-18	9.8	0.5000000000000001	5.3517476348418886e-18	-0.8851740824463896
17108	302	920000000	2.6361101074806443e-20	-6.317224423688689e-20	-5.397868050891178e-18	1.0	0.0	0.0	0.0	-1.397548059122027e-17	-3.157251417237206e-17	9.8	0.5000000000000001	5.3522092844861565e-18	-0.8691691779790905
17109	302	940000000	2.6355148698407172e-20	-6.214438894533679e-20	-5.399955009385525e-18	1.0	0.0	0.0	0.0	-5.1157780576992817e-17	-1.6312515520101033e-17	9.8	0.5000000000000001	5.3543065527988525e-18	-0.8815155005031858
17110	302	960000000	2.6018590932915772e-20	-6.39691145131112e-20	-5.402041190794177e-18	1.0	0.0	0.0	0.0	-6.052064304822574e-17	3.8996027893952063e-17	9.8	0.5000000000000001	5.3569756693570176e-18	-0.8511568005773509
17111	302	980000000	2.6201536608184607e-20	-6.322243902314297e-20	-5.4041278171169155e-18	1.0	0.0	0.0	0.0	8.897433291943118e-17	3.2311785908433705e-17	9.8	0.5000000000000001	5.358745424475166e-18	-0.8846706031614581
17112	303	0	2.5735808155788837e-20	-6.275966090032825e-20	-5.406214321171579e-18	1.0	0.0	0.0	0.0	-3.693086070068409e-17	2.5665136207550378e-17	9.8	0.5000000000000001	5.361638593871908e-18	-0.858894944579428
17113	303	20000000	2.6369828415858195e-20	-6.237847493065278e-20	-5.40830289012417e-18	1.0	0.0	0.0	0.0	2.50968166151582e-17	-6.61795931395478e-17	9.8	0.5000000000000001	5.3626290075210314e-18	-0.8560185739282539
17114	303	40000000	2.6015301760991322e-20	-6.300666942821424e-20	-5.410389437959592e-18	1.0	0.0	0.0	0.0	-8.140153263485971e-17	2.4823142611012694e-17	9.8	0.5000000000000001	5.36532961353532e-18	-0.8646753820641411
17115	303	60000000	2.7121876473815164e-20	-6.323686950980189e-20	-5.412475923244481e-18	1.0	0.0	0.0	0.0	6.093465864833886e-17	9.721212204702762e-18	9.8	0.5000000000000001	5.365499455195227e-18	-0.8773809239846084
17116	303	80000000	2.508381441232528e-20	-6.227729769476144e-20	-5.414561576220093e-18	1.0	0.0	0.0	0.0	3.736719188721072e-17	8.673121968377845e-17	9.8	0.5000000000000001	5.371115135210319e-18	-0.8720467857933881
17117	303	100000000	2.5428053033849054e-20	-6.094269528158775e-20	-5.416647176332041e-18	1.0	0.0	0.0	0.0	5.727229359341005e-17	-1.5480577247804444e-16	9.8	0.5000000000000001	5.37260449653986e-18	-0.8686420206073162
17118	303	120000000	2.555819717448041e-20	-6.180719843227175e-20	-5.418733116338683e-18	1.0	0.0	0.0	0.0	-8.336757056668536e-17	1.459439593017864e-16	9.8	0.5000000000000001	5.374465020282621e-18	-0.875133549958413
17119	303	140000000	2.5520370969837366e-20	-6.161372677134526e-20	-5.4208207564361705e-18	1.0	0.0	0.0	0.0	6.471325290078739e-17	-1.2007342314154552e-16	9.8	0.5000000000000001	5.376618177288408e-18	-0.858294738281231
17120	303	160000000	2.614819559021259e-20	-6.343792235293844e-20	-5.4229078209753844e-18	1.0	0.0	0.0	0.0	-1.31664391239579e-16	-1.01111479070134e-17	9.8	0.5000000000000001	5.3776178176868895e-18	-0.8567564675500078
17121	303	180000000	2.533445702289252e-20	-6.246715098426247e-20	-5.424994587281371e-18	1.0	0.0	0.0	0.0	6.168783441566363e-17	1.0485138269875234e-16	9.8	0.5000000000000001	5.381114020535553e-18	-0.8545222024825131
17122	303	200000000	2.570805845189906e-20	-6.338319753342656e-20	-5.4270817291185955e-18	1.0	0.0	0.0	0.0	-3.2681731341446955e-17	-4.097563077042282e-17	9.8	0.5000000000000001	5.382554065715957e-18	-0.8417147435241853
17123	303	220000000	2.6363402286886565e-20	-6.215092426382332e-20	-5.429167575160693e-18	1.0	0.0	0.0	0.0	1.593064788613818e-16	-2.959164549136954e-17	9.8	0.5000000000000001	5.383504822939429e-18	-0.8809886760869469
17124	303	240000000	2.7509249151589217e-20	-6.315425755900601e-20	-5.431253650182836e-18	1.0	0.0	0.0	0.0	-3.485790245972897e-17	3.274233772311215e-17	9.8	0.5000000000000001	5.383606232974214e-18	-0.8683668823287061
17125	303	260000000	2.5535200869816408e-20	-6.362364966655971e-20	-5.433339935974576e-18	1.0	0.0	0.0	0.0	3.2045971239843474e-17	2.6898259047823715e-18	9.8	0.5000000000000001	5.389111670686578e-18	-0.8787032027490135
17126	303	280000000	-2.6659078482561116e-20	6.22109645877601e-20	-5.4336528910547064e-18	1.0	0.0	0.0	0.0	6.1596768952556135e-15	2.577820067379999e-15	9.799999999998304	0.5000000000000001	5.47982776946947e-18	-0.8501114244767652
17127	303	300000000	-2.6659078482561116e-20	6.22109645877601e-20	-5.4336528910547064e-18	1.0	0.0	0.0	0.0	-1.2193349059200981e-18	-5.225179382581979e-19	9.8	0.5000000000000001	5.47982776946947e-18	-0.8823694152542524
17128	303	320000000	-2.6659078482561116e-20	6.22109645877601e-20	-5.4336528910547064e-18	1.0	0.0	0.0	0.0	-1.2193349059200981e-18	-5.225179382581979e-19	9.8	0.5000000000000001	5.47982776946947e-18	-0.8934387104432991
17129	303	340000000	-2.6659078482561116e-20	6.22109645877601e-20	-5.4336528910547064e-18	1.0	0.0	0.0	0.0	-1.2193349059200981e-18	-5.225179382581979e-19	9.8	0.5000000000000001	5.47982776946947e-18	-0.8859049640535435
17130	303	360000000	-2.6659078482561116e-20	6.22109645877601e-20	-5.4336528910547064e-18	1.0	0.0	0.0	0.0	-1.2193349059200981e-18	-5.225179382581979e-19	9.8	0.5000000000000001	5.47982776946947e-18	-0.8581747736097393
17131	303	380000000	-2.6659078482561116e-20	6.22109645877601e-20	-5.4336528910547064e-18	1.0	0.0	0.0	0.0	-1.2193349059200981e-18	-5.225179382581979e-19	9.8	0.5000000000000001	5.47982776946947e-18	-0.8312415429521114
17132	303	400000000	-2.6659078482561116e-20	6.22109645877601e-20	-5.4336528910547064e-18	1.0	0.0	0.0	0.0	-1.2193349059200981e-18	-5.225179382581979e-19	9.8	0.5000000000000001	5.47982776946947e-18	-0.8822003101360946
17133	303	420000000	-2.6659078482561116e-20	6.22109645877601e-20	-5.4336528910547064e-18	1.0	0.0	0.0	0.0	-1.2193349059200981e-18	-5.225179382581979e-19	9.8	0.5000000000000001	5.47982776946947e-18	-0.8719408388589633
17134	303	440000000	-2.6659078482561116e-20	6.22109645877601e-20	-5.4336528910547064e-18	1.0	0.0	0.0	0.0	-1.2193349059200981e-18	-5.225179382581979e-19	9.8	0.5000000000000001	5.47982776946947e-18	-0.8300122336058134
17135	303	460000000	-2.6659078482561116e-20	6.22109645877601e-20	-5.4336528910547064e-18	1.0	0.0	0.0	0.0	-1.2193349059200981e-18	-5.225179382581979e-19	9.8	0.5000000000000001	5.47982776946947e-18	-0.8882606249670524
17136	303	480000000	-2.6659078482561116e-20	6.22109645877601e-20	-5.4336528910547064e-18	1.0	0.0	0.0	0.0	-1.2193349059200981e-18	-5.225179382581979e-19	9.8	0.5000000000000001	5.47982776946947e-18	-0.8569221953429296
17137	303	500000000	-2.6659078482561116e-20	6.22109645877601e-20	-5.4336528910547064e-18	1.0	0.0	0.0	0.0	-1.2193349059200981e-18	-5.225179382581979e-19	9.8	0.5000000000000001	5.47982776946947e-18	-0.863822230716404
17138	303	520000000	-2.6659078482561116e-20	6.22109645877601e-20	-5.4336528910547064e-18	1.0	0.0	0.0	0.0	-1.2193349059200981e-18	-5.225179382581979e-19	9.8	0.5000000000000001	5.47982776946947e-18	-0.8834589365651782
17139	303	540000000	-2.6659078482561116e-20	6.22109645877601e-20	-5.4336528910547064e-18	1.0	0.0	0.0	0.0	-1.2193349059200981e-18	-5.225179382581979e-19	9.8	0.5000000000000001	5.47982776946947e-18	-0.8683738234237426
17140	303	560000000	-2.6659078482561116e-20	6.22109645877601e-20	-5.4336528910547064e-18	1.0	0.0	0.0	0.0	-1.2193349059200981e-18	-5.225179382581979e-19	9.8	0.5000000000000001	5.47982776946947e-18	-0.8824880062897283
17141	303	580000000	-2.6659078482561116e-20	6.22109645877601e-20	-5.4336528910547064e-18	1.0	0.0	0.0	0.0	-1.2193349059200981e-18	-5.225179382581979e-19	9.8	0.5000000000000001	5.47982776946947e-18	-0.8519203633920317
17142	303	600000000	-2.6659078482561116e-20	6.22109645877601e-20	-5.4336528910547064e-18	1.0	0.0	0.0	0.0	-1.2193349059200981e-18	-5.225179382581979e-19	9.8	0.5000000000000001	5.47982776946947e-18	-0.8689403461058041
17143	303	620000000	-2.6659078482561116e-20	6.22109645877601e-20	-5.4336528910547064e-18	1.0	0.0	0.0	0.0	-1.2193349059200981e-18	-5.225179382581979e-19	9.8	0.5000000000000001	5.47982776946947e-18	-0.8766021761168322
17144	303	640000000	-2.6659078482561116e-20	6.22109645877601e-20	-5.4336528910547064e-18	1.0	0.0	0.0	0.0	-1.2193349059200981e-18	-5.225179382581979e-19	9.8	0.5000000000000001	5.47982776946947e-18	-0.8646064325194847
17145	303	660000000	-2.6659078482561116e-20	6.22109645877601e-20	-5.4336528910547064e-18	1.0	0.0	0.0	0.0	-1.2193349059200981e-18	-5.225179382581979e-19	9.8	0.5000000000000001	5.47982776946947e-18	-0.8859987551117638
17146	303	680000000	-2.6659078482561116e-20	6.22109645877601e-20	-5.4336528910547064e-18	1.0	0.0	0.0	0.0	-1.2193349059200981e-18	-5.225179382581979e-19	9.8	0.5000000000000001	5.47982776946947e-18	-0.8594453055801913
17147	303	700000000	-3.0206360363483006e-15	1.9988396248112587e-11	1.815259838337029e-11	1.0	0.0	0.0	0.0	745.2300011316311	0.019997204808309167	10.159998897755628	0.5000000000346211	-1.8147366488912686e-11	-0.8709430903988008
17148	303	720000000	-9.756925826730679e-15	1.0002036359396932e-10	9.786856200164784e-11	1.0	0.0	0.0	0.0	-9.799999990486718	1.5548068446924365e-08	9.799999986565892	0.5000000001732404	-9.785166252734604e-11	-0.8654887179134232
17149	303	740000000	-9.756953831757497e-15	1.8044453747499422e-10	1.7758429880723965e-10	1.0	0.0	0.0	0.0	-9.799999992957783	1.7798008048514547e-08	9.799999985884476	0.5000000003125392	-1.775673993229798e-10	-0.8851891556468365
17150	303	760000000	-9.756992001179683e-15	2.615762824006674e-10	2.5728740122865324e-10	1.0	0.0	0.0	0.0	-9.799999995350436	1.937425305204157e-08	9.799999985096898	0.5000000004530635	-2.572705017393483e-10	-0.8587075254658632
17151	303	780000000	-9.757053119900783e-15	3.437337379235168e-10	3.369721989975555e-10	1.0	0.0	0.0	0.0	-9.79999999774969	2.0950155401102065e-08	9.799999984275537	0.5000000005953643	-3.369552994864443e-10	-0.8618320433434817
17152	303	800000000	-9.757130173429204e-15	4.2723906489788604e-10	4.1663302302566264e-10	1.0	0.0	0.0	0.0	-9.800000000212044	2.2525599682884206e-08	9.799999983464398	0.50000000074	-4.166161234887788e-10	-0.8220300319298351
17153	303	820000000	-9.757223214704504e-15	5.124197100262614e-10	4.962642062595551e-10	1.0	0.0	0.0	0.0	-9.800000002722069	2.4100477289705002e-08	9.799999982635256	0.500000000887537	-4.962473066936644e-10	-0.8512173554773386
17154	303	840000000	-9.757335552449133e-15	5.99609688871279e-10	5.758600836102945e-10	1.0	0.0	0.0	0.0	-9.800000005269965	2.5674672014111646e-08	9.79999998176539	0.5000000010385545	-5.758431840074391e-10	-0.8572776029196493
17155	303	860000000	-9.757462130935188e-15	6.891508967497428e-10	6.554149924211712e-10	1.0	0.0	0.0	0.0	-9.800000007882776	2.7248071558996958e-08	9.79999998086806	0.5000000011936444	-6.553980927833468e-10	-0.8616603455056615
17156	303	880000000	-9.757612691041563e-15	7.813944487675872e-10	7.349232730974465e-10	1.0	0.0	0.0	0.0	-9.800000010576174	2.8820567411210992e-08	9.799999979945328	0.500000001353415	-7.349063734111689e-10	-0.8527047344161247
17157	303	900000000	-9.75778768275451e-15	8.767020564198134e-10	8.143792693566778e-10	1.0	0.0	0.0	0.0	-9.80000001337164	3.039204611642031e-08	9.7999999790047	0.5000000015184926	-8.143623696092795e-10	-0.8444903618021881
17158	303	920000000	-9.757978688684116e-15	9.754474462622924e-10	8.937773286051716e-10	1.0	0.0	0.0	0.0	-9.800000016263528	3.1962397819094945e-08	9.799999978025802	0.5000000016895246	-8.937604288003721e-10	-0.8653253470934393
17159	303	940000000	-9.758195873225748e-15	1.0780178250275787e-09	9.731118020390448e-10	1.0	0.0	0.0	0.0	-9.800000019243623	3.353150565505897e-08	9.799999976985346	0.5000000018671819	-9.730949021649896e-10	-0.8819527489506638
17160	303	960000000	-9.758439262849185e-15	1.1848153985742475e-09	1.052377045459574e-09	1.0	0.0	0.0	0.0	-9.800000022362788	3.509926476880499e-08	9.799999975918178	0.5000000020521606	-1.0523601455066264e-09	-0.8544886561082138
17161	303	980000000	-9.75870345771939e-15	1.2962589485483238e-09	1.1315674197368126e-09	1.0	0.0	0.0	0.0	-9.800000025624975	3.666555933720936e-08	9.79999997481178	0.5000000022451864	-1.1315505197072003e-09	-0.8763313504058637
17162	304	0	-9.759003254443158e-15	1.4127854746528909e-09	1.2106772910769639e-09	1.0	0.0	0.0	0.0	-9.800000029046032	3.8230276525346994e-08	9.79999997366456	0.5000000024470163	-1.210660390950057e-09	-0.8673927646297397
17163	304	20000000	-9.759331691468456e-15	1.5348519086591094e-09	1.289701031643704e-09	1.0	0.0	0.0	0.0	-9.800000032585437	3.979331258711995e-08	9.79999997241921	0.5000000026584416	-1.2896841314139764e-09	-0.8718389642250282
17164	304	40000000	-9.759688874674402e-15	1.6629369048672303e-09	1.368633019604585e-09	1.0	0.0	0.0	0.0	-9.800000036318924	4.1354551463878786e-08	9.799999971131989	0.5000000028802912	-1.368616119269666e-09	-0.8709599409330709
17165	304	60000000	-9.760081183277878e-15	1.7975427184853875e-09	1.4474676396683444e-09	1.0	0.0	0.0	0.0	-9.800000040241862	4.29138816863616e-08	9.799999969778439	0.5000000031134354	-1.4474507392184638e-09	-0.8853508497972555
17166	304	80000000	-9.760511396605745e-15	1.939197175177298e-09	1.5261992832135217e-09	1.0	0.0	0.0	0.0	-9.800000044375334	4.447120068737222e-08	9.799999968358811	0.5000000033587882	-1.5261823826380742e-09	-0.8404456683573687
17167	304	100000000	-9.760989467295131e-15	2.088455739750578e-09	1.604822349069661e-09	1.0	0.0	0.0	0.0	-9.800000048709986	4.6026387348458216e-08	9.799999966842549	0.5000000036173116	-1.6048054483451348e-09	-0.8783192791471688
17168	304	120000000	-9.761498692915108e-15	2.245903694458353e-09	1.6833312439302136e-09	1.0	0.0	0.0	0.0	-9.800000053327189	4.757933890445051e-08	9.799999965287602	0.5000000038900194	-1.6833143430667328e-09	-0.8593494788591225
17169	304	140000000	-9.762061387489881e-15	2.4121584350513347e-09	1.7617203824840656e-09	1.0	0.0	0.0	0.0	-9.800000058158655	4.91299412720751e-08	9.799999963601739	0.5000000041779811	-1.7617034814582142e-09	-0.8489971825473179
17170	304	160000000	-9.762674559934355e-15	2.587871890211179e-09	1.8399841879349018e-09	1.0	0.0	0.0	0.0	-9.800000063264509	5.067809085476242e-08	9.799999961820019	0.5000000044823257	-1.83996728673398e-09	-0.8848934409872764
17171	304	180000000	-9.763340857226489e-15	2.7737330790192857e-09	1.91811709249905e-09	1.0	0.0	0.0	0.0	-9.800000068674153	5.222367378610634e-08	9.799999959943845	0.5000000048042467	-1.918100191111769e-09	-0.8582557158865131
17172	304	200000000	-9.764065970368897e-15	2.970470812615157e-09	1.996113537528696e-09	1.0	0.0	0.0	0.0	-9.800000074449922	5.376658186762099e-08	9.799999958007518	0.5000000051450065	-1.996096635940393e-09	-0.8540764280624619
17173	304	220000000	-9.764850243468716e-15	3.1788565521006203e-09	2.0739679745410308e-09	1.0	0.0	0.0	0.0	-9.800000080528243	5.530670846034302e-08	9.799999955917222	0.5000000055059411	-2.0739510727434577e-09	-0.8877088248024262
17174	304	240000000	-9.765702464492772e-15	3.399707433173011e-09	2.151674864937669e-09	1.0	0.0	0.0	0.0	-9.800000086919269	5.684394644152236e-08	9.799999953650856	0.500000005888466	-2.1516579629149266e-09	-0.863579443312187
17175	304	260000000	-9.766630203798032e-15	3.633889471170185e-09	2.22922868043272e-09	1.0	0.0	0.0	0.0	-9.800000093753754	5.837818419378824e-08	9.799999951305157	0.5000000062940814	-2.2292117781639705e-09	-0.8632061766005217
17176	304	280000000	-9.767640793513445e-15	3.8823209559502635e-09	2.306623903665297e-09	1.0	0.0	0.0	0.0	-9.800000100985745	5.990931683734879e-08	9.799999948798721	0.5000000067243772	-2.3066070011258197e-09	-0.8491036917295544
17177	304	300000000	-9.768728436757279e-15	4.1459760538096475e-09	2.38385502846943e-09	1.0	0.0	0.0	0.0	-9.800000108674567	6.14372341587288e-08	9.799999946152255	0.5000000071810412	-2.3838381256540543e-09	-0.8520904772267749
17178	304	320000000	-9.769910100658258e-15	4.4258886253959605e-09	2.460916560504841e-09	1.0	0.0	0.0	0.0	-9.800000116822368	6.296183097042017e-08	9.799999943327581	0.500000007665864	-2.4608996573892565e-09	-0.8463397808413459
17179	304	340000000	-9.771190682125607e-15	4.723156283055032e-09	2.5378030173477085e-09	1.0	0.0	0.0	0.0	-9.800000125488943	6.448300266594234e-08	9.799999940341397	0.5000000081807467	-2.5377861139101667e-09	-0.885405005186453
17180	304	360000000	-9.772576930953127e-15	5.038944692134831e-09	2.6145089293277738e-09	1.0	0.0	0.0	0.0	-9.800000134667204	6.600064064919371e-08	9.799999937140303	0.5000000087277083	-2.6144920255467295e-09	-0.8678456177583158
17181	304	380000000	-9.77407202351437e-15	5.374492143005724e-09	2.691028839633454e-09	1.0	0.0	0.0	0.0	-9.80000014443365	6.751463562792963e-08	9.79999993375346	0.5000000093088935	-2.6910119354946662e-09	-0.8521080085592168
17182	304	400000000	-9.775698512061556e-15	5.731114406876494e-09	2.767357304654227e-09	1.0	0.0	0.0	0.0	-9.800000154835473	6.902488880300682e-08	9.799999930175913	0.5000000099265814	-2.7673404001181787e-09	-0.8556550461134034
17183	304	420000000	-9.777453061402454e-15	6.110209894194996e-09	2.8434888942928162e-09	1.0	0.0	0.0	0.0	-9.800000165858291	7.053129318353697e-08	9.799999926338053	0.500000010583194	-2.8434719893406e-09	-0.846006510891308
17184	304	440000000	-9.779350547553202e-15	6.513265138679241e-09	2.9194181926125638e-09	1.0	0.0	0.0	0.0	-9.800000177575301	7.203374144102619e-08	9.799999922255411	0.5000000112813062	-2.9194012872154654e-09	-0.8547021918322085
17185	304	460000000	-9.781400446694896e-15	6.9418606273629564e-09	2.995139797584668e-09	1.0	0.0	0.0	0.0	-9.800000190063523	7.353209158402754e-08	9.799999917942596	0.5000000120236554	-2.9951228917147224e-09	-0.8625934624106573
17186	304	480000000	-9.78361580842888e-15	7.39767699691644e-09	3.0706483223930926e-09	1.0	0.0	0.0	0.0	-9.800000203346535	7.502627216977535e-08	9.799999913357663	0.5000000128131524	-3.0706314160181886e-09	-0.8785585738039847
17187	304	500000000	-9.786007723592808e-15	7.882501623904405e-09	3.1459383950610244e-09	1.0	0.0	0.0	0.0	-9.80000021745448	7.651618506063647e-08	9.799999908460368	0.5000000136528934	-3.1459214881496826e-09	-0.8770644706685322
17188	304	520000000	-9.788592285812677e-15	8.398235634505562e-09	3.2210046593519044e-09	1.0	0.0	0.0	0.0	-9.800000232467344	7.800172913715479e-08	9.799999903256504	0.5000000145461708	-3.2209877518660977e-09	-0.8574877163861314
17189	304	540000000	-9.791386223989195e-15	8.946901359129339e-09	3.295841775215444e-09	1.0	0.0	0.0	0.0	-9.800000248424807	7.948280009490091e-08	9.799999897706247	0.5000000154964878	-3.2958248671110877e-09	-0.854170802347088
17190	304	560000000	-9.794393879166218e-15	9.530650262202315e-09	3.3704444186063326e-09	1.0	0.0	0.0	0.0	-9.80000026541447	8.095929860035846e-08	9.799999891812858	0.5000000165075705	-3.370427509856447e-09	-0.8505765102616045
17191	304	580000000	-9.797644950436457e-15	1.0151771378207744e-08	3.4448072821188e-09	1.0	0.0	0.0	0.0	-9.800000283511084	8.24311179152271e-08	9.799999885561567	0.5000000175833839	-3.44479037267142e-09	-0.8661157105923875
17192	304	600000000	-9.801151508019412e-15	1.0812700287749714e-08	3.5189250759914856e-09	1.0	0.0	0.0	0.0	-9.8000003027579	8.389816639503921e-08	9.799999878900037	0.5000000187281463	-3.5189081658021503e-09	-0.8605467348158579
17193	304	620000000	-9.804934648329427e-15	1.1516028668879511e-08	3.5927925273848423e-09	1.0	-3.139506348873746e-24	1.0480409579422995e-15	1.1007108001912192e-16	-9.800000323230453	8.536033883299676e-08	9.799999871802124	0.5000000199463467	-3.592775616403065e-09	-0.8383436621276322
17194	304	640000000	-9.809011735541916e-15	1.2264514459584412e-08	3.6664043812009014e-09	1.0	-3.331377023019475e-24	1.115330741859823e-15	1.0969020994911571e-16	-9.800000345006115	8.68175370162973e-08	9.79999986423721	0.5000000212427621	-3.66638746937888e-09	-0.8579038816067215
17195	304	660000000	-9.813413315782542e-15	1.306109267014703e-08	3.739755400710429e-09	1.0	-3.5473958236719516e-24	1.186994031910029e-15	1.0930153654446421e-16	-9.80000036820387	8.826966068801365e-08	9.79999985620898	0.500000022622476	-3.739738487982626e-09	-0.8392194345665143
17196	304	680000000	-9.818152121015295e-15	1.3908886895109208e-08	3.812840367672694e-09	1.0	0.0	0.0	0.0	-9.800000392864336	8.971661778674093e-08	9.799999847635961	0.5000000240908987	-3.812823453989273e-09	-0.8696458073490337
17197	304	700000000	-9.823258617956495e-15	1.4811221562548464e-08	3.885654082816692e-09	1.0	0.0	0.0	0.0	-9.800000419153879	9.115830122782645e-08	9.79999983855399	0.5000000256537881	-3.885637168115563e-09	-0.8683139853757674
17198	304	720000000	-9.828761605726349e-15	1.5771634968520444e-08	3.958191366550378e-09	1.0	0.0	0.0	0.0	-9.800000447075549	9.259462438783593e-08	9.799999828827422	0.500000027317273	-3.958174450763051e-09	-0.8503247231231317
17199	304	740000000	-9.834687951151152e-15	1.679389314838717e-08	4.030447058623966e-09	1.0	0.0	0.0	0.0	-9.800000476863831	9.402548991936543e-08	9.79999981854315	0.500000029087876	-4.030430141682068e-09	-0.8669493184288066
17200	304	760000000	-9.841073044326235e-15	1.788200464796256e-08	4.102416018808461e-09	1.0	0.0	0.0	0.0	-9.800000508518778	9.545079437917842e-08	9.799999807544154	0.5000000309725404	-4.1023991006323704e-09	-0.8861882491227505
17201	304	780000000	-9.847943752077888e-15	1.904023624204564e-08	4.174093127362978e-09	0.9999999999999999	0.0	0.0	0.0	-9.800000542231217	9.687045783979596e-08	9.799999795853964	0.5000000329786563	-4.17407620788022e-09	-0.8555015391063366
17202	304	800000000	-9.855346264171516e-15	2.0273129663935828e-08	4.245473285527164e-09	0.9999999999999998	-7.618875709006457e-24	2.5981286141241713e-15	1.5042243564150383e-16	-9.800000578116954	9.828437865814305e-08	9.799999783410106	0.5000000351140903	-4.245456364642841e-09	-0.8900673385982012
17203	304	820000000	-9.86331213258441e-15	2.158551941603672e-08	4.316551415305889e-09	0.9999999999999998	0.0	0.0	0.0	-9.800000616318878	9.969246706411173e-08	9.799999770166554	0.500000037387216	-4.316534492932199e-09	-0.8478470336356905
17204	304	840000000	-9.871884555996876e-15	2.2982551728693866e-08	4.3873224603197226e-09	0.9999999999999998	0.0	0.0	0.0	-9.80000065698462	1.0109463131500936e-07	9.799999756068585	0.500000039806947	-4.387305536360246e-09	-0.8496117073038575
17205	304	860000000	-9.881107474243055e-15	2.4469704737517564e-08	4.457781386137922e-09	0.9999999999999998	0.0	0.0	0.0	-9.8000007002511	1.024907822341249e-07	9.799999741038704	0.5000000423827714	-4.457764460491114e-09	-0.880963348197952
17206	304	880000000	-9.891027077088348e-15	2.605280996405467e-08	4.527923180484234e-09	0.9999999999999998	0.0	0.0	0.0	-9.800000746332612	1.0388076984390133e-07	9.799999725062486	0.50000004512479	-4.527906253044639e-09	-0.8565067552266616
17207	304	900000000	-9.90169847461389e-15	2.7738075183729467e-08	4.5977428535151495e-09	0.9999999999999998	0.0	0.0	0.0	-9.800000795390458	1.0526450544314186e-07	9.799999708057854	0.5000000480437549	-4.597725924163418e-09	-0.8652447247515634
17208	304	920000000	-9.913180323851278e-15	2.9532108770329314e-08	4.66723543851592e-09	0.9999999999999996	-7.690391962373749e-24	2.6733183661101045e-15	1.0355202108739152e-16	-9.800000847622394	1.0664195495099544e-07	9.799999689963625	0.5000000511511121	-4.667218507118513e-09	-0.8762571818828647
17209	304	940000000	-9.925522017409247e-15	3.144194560565725e-08	4.736395992158963e-09	0.9999999999999996	0.0	0.0	0.0	-9.800000903191467	1.0801303398524198e-07	9.799999670667155	0.5000000544590465	-4.736379058590461e-09	-0.8852688803540908
17210	304	960000000	-9.938790259132392e-15	3.347507466691678e-08	4.805219595008845e-09	0.9999999999999996	0.0	0.0	0.0	-9.800000962387964	1.0937765797688798e-07	9.799999650165024	0.5000000579805292	-4.805202659128661e-09	-0.8662178647113988
17211	304	980000000	-9.953050085269199e-15	3.5639468394247154e-08	4.873701351231939e-09	0.9999999999999994	0.0	0.0	0.0	-9.800001025383512	1.107345534026119e-07	9.799999628316295	0.5000000617293688	-4.8736844128943675e-09	-0.8698737266545954
17212	305	0	-9.968379714018384e-15	3.794361395121509e-08	4.941836389515638e-09	0.9999999999999993	-9.727787939023649e-24	3.433444435846728e-15	1.0152911884147257e-16	-9.80000109243059	1.120836604749917e-07	9.799999605040838	0.5000000657202659	-4.941819448554689e-09	-0.8649774860126437
17213	305	20000000	-9.984853710749092e-15	4.039654650461663e-08	5.009619863002929e-09	0.9999999999999993	0.0	0.0	0.0	-9.800001163841614	1.1342591135699345e-07	9.799999580296909	0.5000000699688695	-5.009602919246841e-09	-0.8716654069907374
17214	305	40000000	-1.0002548996640843e-14	4.300788465679827e-08	5.077046950310699e-09	0.9999999999999991	0.0	0.0	0.0	-9.800001239852184	1.1476121800422319e-07	9.799999553943021	0.5000000744918397	-5.077030003586634e-09	-0.8600215117473335
17215	305	60000000	-1.0019880799519101e-14	4.578786815925149e-08	5.14411285681382e-09	0.9999999999999991	0.0	0.0	0.0	-9.8000013207659	1.1608944617921334e-07	9.799999525881386	0.500000079306912	-5.14409590983536e-09	-0.8762429685246496
17216	305	80000000	-1.0034054069476611e-14	4.874739806664215e-08	5.210812814942592e-09	0.9999999999999989	0.0	0.0	0.0	-9.80000140693167	1.1740839168185036e-07	9.799999496033578	0.5000000844329678	-5.210795875416024e-09	-0.873630216961987
17217	305	100000000	-1.0049331526290201e-14	5.189807948345516e-08	5.277142076571846e-09	0.9999999999999987	-3.11914776439725e-24	4.694881166239115e-15	9.88383019406888e-17	-9.800001498598087	1.187187724569525e-07	9.799999464193238	0.5000000898901079	-5.277125144982461e-09	-0.8823325097696613
17218	305	120000000	-1.0065798429119977e-14	5.5252267068858895e-08	5.343095923416125e-09	0.9999999999999986	0.0	0.0	0.0	-9.80000159623788	1.200216294544611e-07	9.799999430348905	0.5000000956997308	-5.343079000275233e-09	-0.8520833686015914
17219	305	140000000	-1.0083542684103988e-14	5.882311348565787e-08	5.408669663965494e-09	0.9999999999999983	-3.409352715025045e-24	5.320975805519496e-15	9.771248780102223e-17	-9.800001700175718	1.2131686940799926e-07	9.799999394309545	0.5000001018846179	-5.40865274981809e-09	-0.867233140119134
17220	305	160000000	-1.0102658708946082e-14	6.262462097249996e-08	5.473858634267186e-09	0.9999999999999981	-3.5606992524035615e-24	5.664687584105277e-15	9.713913545270306e-17	-9.800001810833006	1.2260438917575998e-07	9.79999935594771	0.5000001084690214	-5.473841729693745e-09	-0.8761158173289517
17221	305	180000000	-1.0123246188836231e-14	6.667169625260022e-08	5.538658197763533e-09	0.9999999999999978	-3.713980358521069e-24	6.030612111241037e-15	9.655887409506432e-17	-9.80000192862418	1.2388409191526146e-07	9.799999315093533	0.5000001154787611	-5.538641303384871e-09	-0.8521949635985756
17222	305	200000000	-1.0145419658510775e-14	7.098020898477966e-08	5.6030637455130095e-09	0.9999999999999976	0.0	0.0	0.0	-9.800002054036188	1.2515587863429707e-07	9.799999271611814	0.5000001229413233	-5.6030468619795024e-09	-0.87739719978031
17223	305	220000000	-1.2552468945395467e-14	7.556705399454696e-08	5.6670683134972846e-09	0.9999999999999972	-3.555256067984818e-21	6.834931686173876e-15	9.53742384674452e-17	-9.800002187582876	1.2645646035759333e-07	9.799999225354146	0.5000001308859713	-5.667047313724016e-09	-0.8405268987568149
17224	305	240000000	1.2347146332556558e-14	1.0592568616055792e-14	-1.940454870874489e-07	0.9999999999999812	8.4614269633901275e-19	-1.6161666973972387e-12	-4.2712903212867235e-12	-0.49143073042317925	-0.0013923137747020406	9.520036812954977	0.4999999999999808	1.9404546570156407e-07	-0.8839111781924582
17225	305	260000000	1.2347155226402504e-14	1.0592561839792214e-14	-1.9403864538749422e-07	0.9999999999999812	1.3252757176603825e-26	-1.0097291137333805e-26	1.0194927386436939e-17	6.975954414832264e-09	-5.8900741472628955e-09	9.800000017026372	0.4999999999999808	1.9403862400159395e-07	-0.8601573039164278
17226	305	280000000	1.2347163961429773e-14	1.0592557604627478e-14	-1.940318036886977e-07	0.9999999999999812	1.3016098170322193e-26	-6.3107588379707255e-27	1.0194925660645937e-17	6.975951585068841e-09	-5.890078877020221e-09	9.80000001705413	0.4999999999999808	1.940317823027823e-07	-0.8537145736553331
17227	305	300000000	1.234717079063291e-14	1.0592550616605663e-14	-1.9402496199105963e-07	0.9999999999999812	1.0176199707478179e-26	-1.041283609498556e-26	1.0194923934381618e-17	6.975948440940474e-09	-5.8900829183466436e-09	9.80000001702915	0.4999999999999808	1.9402494060513242e-07	-0.8598949433075525
17228	305	320000000	1.234717941978106e-14	1.0592544052100322e-14	-1.9401812029457984e-07	0.9999999999999812	1.2858326662800936e-26	-9.781746852612287e-27	1.0194922208432843e-17	6.975947562786787e-09	-5.890088087207166e-09	9.80000001705691	0.4999999999999808	1.9401809890863768e-07	-0.8366976304369421
17229	305	340000000	1.23471874136545e-14	1.0592538334627928e-14	-1.9401127859925864e-07	0.9999999999999812	1.1911693331668713e-26	-8.519569587098325e-27	1.0194920482010752e-17	6.975943041696409e-09	-5.890091225912984e-09	9.800000017045807	0.4999999999999808	1.9401125721330262e-07	-0.8598816836246583
17230	305	360000000	1.234719800156634e-14	1.0592534734737902e-14	-1.9400443690509548e-07	0.9999999999999812	1.57771111550783e-26	-5.364125215883722e-27	1.0194918756377522e-17	6.975940287814482e-09	-5.890095427085406e-09	9.80000001703193	0.4999999999999808	1.9400441551912113e-07	-0.8938581499992857
17231	305	380000000	2.8410945094523815e-10	-1.202610302826453e-06	-1.9060553028315729e-07	0.9999999999992587	2.8436357911974883e-08	-0.00012027505830232629	3.399303062346308e-07	0.09884551677234757	0.016678521404247817	9.842263062384088	0.4999979170163714	1.9011304090947925e-07	-0.8556111586280146
17232	305	400000000	6.457883374906323e-15	-3.938815860106568e-15	-1.823019703380586e-07	0.9999999999999835	-2.8430610642745167e-08	0.00012025420947973601	8.303089022661849e-07	0.041437439999615334	0.026632325345277107	9.959490182686892	0.49999999999996014	1.8230195915267223e-07	-0.8482981808877778
17233	305	420000000	2.3757564035738305e-07	-5.563691622046621e-10	-1.8021929590803128e-07	0.9999999999999556	5.653170706367472e-12	-1.3237816893318734e-14	4.955775085357032e-14	0.006755728700929555	0.008289937747999352	9.697786681263668	0.4999999990363821	-2.312737841375067e-07	-0.8667814733302575
17234	305	440000000	4.4924912210806984e-08	-6.393111570011871e-07	-1.780649328389339e-07	0.9999999999997788	-1.285107229151e-11	-4.2609178686693594e-11	1.4372042044467172e-13	-0.008520167094373782	0.02165956823153149	9.857738742741844	0.49999889268016784	1.002524764684694e-07	-0.8805758045987583
17235	305	460000000	6.44737714865087e-07	-2.039711906809545e-09	-1.7987855143917317e-07	0.9999999999997761	5.247547793419902e-11	5.575262064893166e-11	-1.5870309130477403e-13	-0.0019219843399480075	-0.017833515128265302	9.776536979363131	0.499999996467284	-9.368399302133727e-07	-0.8637818140899943
17236	305	480000000	7.873329575330156e-10	-5.044988481252898e-07	-1.8226620927116332e-07	0.9999999999998561	-5.260983564065003e-11	-4.1050216290284475e-11	-1.9504172211922725e-13	-0.0017225246958844267	-0.016657013067831787	9.767438905945584	0.49999912618207526	1.8090234892157977e-07	-0.8855889517475504
17237	305	500000000	2.946240289290684e-07	-1.6403615327527463e-09	-1.8696754507849176e-07	0.9999999999999392	1.7115424807025704e-11	2.9290556300478005e-11	-2.738525525458778e-13	-0.01251613875850741	0.0188192219008644	9.78540826808547	0.4999999971588711	-3.233362431717778e-07	-0.8499566655856908
17238	305	520000000	2.149445914645839e-09	-2.1249536818430763e-07	-1.8433278425462842e-07	0.9999999999999605	-1.0541104474133656e-11	-7.599448468190437e-12	9.4961936412897e-14	0.005533810179453308	0.001971005447227949	9.799352333811786	0.4999996319471475	1.8060976642139344e-07	-0.872736348783404
17239	305	540000000	1.642524284419699e-06	-1.4046359176267322e-06	-1.8981761667151252e-07	0.9999999999976465	0.00016404606914219988	-0.00011922024817091114	-5.485464775822136e-07	-0.15635521362995142	-0.16022684479847174	9.461864943173333	0.4999975670977556	-2.6551206655589034e-06	-0.8884052566861117
17240	305	560000000	1.5887535124585526e-06	-1.3189457115002455e-06	-1.8365249690010285e-07	0.9999999999978513	-5.434321917207317e-13	8.660245742320243e-13	6.230687250578556e-14	0.020409141822281207	-0.00019538869293316176	9.647117671012394	0.4999977155177474	-2.568151822406374e-06	-0.875904425323823
17241	305	580000000	2.0689542909878467e-06	-1.5161891659977002e-06	-1.8097782494362746e-07	0.999999999996694	2.4931726375415336e-11	-1.0240752087463769e-11	1.388506828340671e-13	-0.006159972806152942	-0.027866860538875424	9.938959155184966	0.49999737388164767	-3.4025597377686805e-06	-0.8683065642610984
17242	305	600000000	2.337155264764997e-06	-9.622800906361678e-07	-1.8617616274594016e-07	0.9999999999967886	1.651673577165023e-11	3.411163659427842e-11	-3.202272167635414e-13	0.02770517899583791	-0.009164952402739521	9.818459577034192	0.49999833328178495	-3.8618980602928654e-06	-0.8682176392835573
17243	305	620000000	1.4777877646023435e-06	-1.5035324911930338e-06	-1.8283590821211443e-07	0.9999999999977611	-8.594263038487081e-05	-5.41289654365549e-05	3.342575587334513e-07	-0.02704641421792072	0.04559987252930353	9.770445990049575	0.49999739580350844	-2.3767702809196745e-06	-0.8549824123914428
17244	305	640000000	1.4777875913366054e-06	-1.5035324062333583e-06	-1.8283240470846451e-07	0.9999999999977611	-2.5817824297062425e-19	1.2660744940682354e-19	5.22062746411235e-18	2.9473478107884284e-05	2.8973305209891796e-05	9.799999995132644	0.4999973958036556	-2.376773484308726e-06	-0.8764112368566859
17245	305	660000000	1.4777874180708881e-06	-1.5035323212736991e-06	-1.828289012054557e-07	0.9999999999977611	-2.5817821204870865e-19	1.2660742500270806e-19	5.220626508841237e-18	2.9473476441648684e-05	2.8973301812370393e-05	9.799999995121539	0.49999739580380276	-2.3767766876971726e-06	-0.8647174602674357
17246	305	680000000	1.4777872448052064e-06	-1.5035322363140558e-06	-1.8282539770308783e-07	0.9999999999977611	-2.5817815903868755e-19	1.266074015484562e-19	5.220625553727896e-18	2.9473474775916346e-05	2.8973298414657753e-05	9.799999995129863	0.49999739580394986	-2.3767798910850394e-06	-0.8751103905886419
17247	305	700000000	1.4777870715395634e-06	-1.5035321513544229e-06	-1.8282189420136195e-07	0.9999999999977611	-2.581781012955047e-19	1.266073859860446e-19	5.2206245971157194e-18	2.9473473110386e-05	2.8973295016639087e-05	9.799999995118759	0.499997395804097	-2.3767830944723315e-06	-0.8499631790005205
17248	305	720000000	1.477786898273932e-06	-1.5035320663947946e-06	-1.8281839070027785e-07	0.9999999999977611	-2.581780842575458e-19	1.2660737894655654e-19	5.220623640779644e-18	2.9473471445006756e-05	2.897329161995215e-05	9.799999995132636	0.4999973958042442	-2.3767862978590024e-06	-0.8673210515400506
17249	305	740000000	1.4777867250083525e-06	-1.5035319814351716e-06	-1.8281488719983487e-07	0.9999999999977611	-2.581780066350677e-19	1.2660737127921645e-19	5.220622685429645e-18	2.9473469779018733e-05	2.897328822105387e-05	9.799999995124304	0.49999739580439134	-2.3767895012451214e-06	-0.8636832050961696
17250	305	760000000	1.477786551742791e-06	-1.5035318964756102e-06	-1.828113837000322e-07	0.9999999999977611	-2.581779798152147e-19	1.266072793647574e-19	5.22062173130238e-18	2.9473468111504055e-05	2.8973284824162016e-05	9.799999995127077	0.49999739580453845	-2.376792704630632e-06	-0.8773294685839104
17251	305	780000000	1.4777863784772654e-06	-1.503531811516042e-06	-1.8280788020087192e-07	0.9999999999977611	-2.5817792648965865e-19	1.2660728937435621e-19	5.2206207740591144e-18	2.9473466446763952e-05	2.8973281426197225e-05	9.79999999511875	0.49999739580468566	-2.3767959080155615e-06	-0.8666507256455163
17252	305	800000000	1.4777862052117702e-06	-1.503531726556488e-06	-1.828043767023535e-07	0.9999999999977611	-2.5817788105270465e-19	1.2660726846383952e-19	5.220619817683596e-18	2.947346478067059e-05	2.897327802874318e-05	9.799999995132627	0.4999973958048329	-2.3767991113999034e-06	-0.8779909737079431
17253	305	820000000	1.477786031946307e-06	-1.5035316415969346e-06	-1.8280087320447562e-07	0.9999999999977611	0.0	0.0	0.0	2.947346311530693e-05	2.897327463075236e-05	9.799999995118748	0.49999739580498004	-2.376802314783659e-06	-0.871407798271763
17254	305	840000000	1.4777858586808743e-06	-1.503531556637399e-06	-1.8279736970723962e-07	0.9999999999977611	0.0	0.0	0.0	2.9473461449756025e-05	2.8973271233321215e-05	9.799999995132623	0.49999739580512714	-2.376805518166825e-06	-0.8618251395350854
17255	305	860000000	1.477785685415474e-06	-1.503531471677885e-06	-1.827938662106451e-07	0.9999999999977611	0.0	0.0	0.0	2.9473459783580838e-05	2.8973267835798115e-05	9.799999995129845	0.4999973958052743	-2.376808721549407e-06	-0.8594903764267838
17256	305	880000000	1.4777855121501243e-06	-1.5035313867184182e-06	-1.8279036271469146e-07	0.9999999999977611	0.0	0.0	0.0	2.9473458116100533e-05	2.8973264436991363e-05	9.799999995132614	0.49999739580542146	-2.376811924931435e-06	-0.870442895161685
17257	305	900000000	1.4777853388847706e-06	-1.5035313017589352e-06	-1.8278685921937915e-07	0.9999999999977611	0.0	0.0	0.0	2.947345645145383e-05	2.897326104080247e-05	9.799999995118737	0.49999739580556857	-2.3768151283128144e-06	-0.8741653940581797
17258	305	920000000	1.477785165619485e-06	-1.5035312167994977e-06	-1.827833557247083e-07	0.9999999999977611	0.0	0.0	0.0	2.9473454784451157e-05	2.8973257641660876e-05	9.799999995121508	0.4999973958057157	-2.3768183316936712e-06	-0.8772504809512471
17259	305	940000000	1.4777849923542057e-06	-1.5035311318400604e-06	-1.8277985223067862e-07	0.9999999999977611	0.0	0.0	0.0	2.9473453119134855e-05	2.8973254244910226e-05	9.799999995129834	0.4999973958058629	-2.3768215350738966e-06	-0.8432511476700391
17260	305	960000000	1.477784819088954e-06	-1.503531046880643e-06	-1.827763487372899e-07	0.9999999999977611	0.0	0.0	0.0	2.9473451453140032e-05	2.897325084767722e-05	9.799999995121507	0.49999739580601005	-2.37682473845353e-06	-0.880212571033637
17261	305	980000000	1.4777846458237494e-06	-1.503530961921251e-06	-1.827728452445437e-07	0.9999999999977611	0.0	0.0	0.0	2.9473449786404306e-05	2.8973247449171612e-05	9.799999995129829	0.49999739580615715	-2.3768279418326015e-06	-0.8509729286668368
17262	306	0	1.4777844725585908e-06	-1.5035308769618587e-06	-1.8276934175243862e-07	0.9999999999977611	0.0	0.0	0.0	2.947344812171436e-05	2.897324405080493e-05	9.799999995129825	0.49999739580630437	-2.376831145211112e-06	-0.8453714291076095
17263	306	20000000	1.4777842992934683e-06	-1.5035307920025135e-06	-1.8276583826097488e-07	0.9999999999977611	0.0	0.0	0.0	2.947344645435571e-05	2.897324065283748e-05	9.799999995132598	0.4999973958064515	-2.3768343485890444e-06	-0.8509229817073158
17264	306	40000000	1.4777841260283676e-06	-1.5035307070431584e-06	-1.8276233477015216e-07	0.9999999999977611	0.0	0.0	0.0	2.9473444789498026e-05	2.8973237255821636e-05	9.799999995127047	0.49999739580659863	-2.3768375519663725e-06	-0.8878768294246204
17265	306	60000000	1.4777839527632829e-06	-1.5035306220838105e-06	-1.8275883127997083e-07	0.9999999999977611	0.0	0.0	0.0	2.9473443124074195e-05	2.8973233858695035e-05	9.799999995124269	0.4999973958067458	-2.376840755343087e-06	-0.8754101727040083
17266	306	80000000	1.4777837794982455e-06	-1.5035305371244876e-06	-1.827553277904315e-07	0.9999999999977611	0.0	0.0	0.0	2.9473441457764303e-05	2.897323046035769e-05	9.799999995118714	0.49999739580689295	-2.3768439587192414e-06	-0.852357220442936
17267	306	100000000	1.4777836062332412e-06	-1.5035304521651657e-06	-1.8275182430153334e-07	0.9999999999977611	0.0	0.0	0.0	2.9473439792629584e-05	2.8973227062566322e-05	9.799999995132591	0.49999739580704006	-2.3768471620948127e-06	-0.8727669689460078
17268	306	120000000	1.4777834329682566e-06	-1.503530367205869e-06	-1.8274832081327703e-07	0.9999999999977611	0.0	0.0	0.0	2.947343812595906e-05	2.897322366517034e-05	9.799999995118709	0.4999973958071872	-2.3768503654697754e-06	-0.8593561741730273
17269	306	140000000	1.4777832597033154e-06	-1.5035302822465804e-06	-1.8274481732566173e-07	0.9999999999977611	0.0	0.0	0.0	2.9473436460868367e-05	2.8973220267358523e-05	9.799999995132586	0.4999973958073343	-2.376853568844173e-06	-0.8622742038317854
17270	306	160000000	1.477783086438395e-06	-1.5035301972873208e-06	-1.827413138386873e-07	0.9999999999977611	0.0	0.0	0.0	2.9473434794264483e-05	2.8973216870321877e-05	9.799999995129808	0.4999973958074814	-2.376856772217965e-06	-0.8347088987713743
17271	306	180000000	1.4777829131735249e-06	-1.5035301123280938e-06	-1.8273781035235515e-07	0.9999999999977611	0.0	0.0	0.0	2.947343312771046e-05	2.897321347158959e-05	9.79999999513258	0.49999739580762864	-2.3768599755912026e-06	-0.8727158091890891
17272	306	200000000	1.4777827399086851e-06	-1.5035300273688738e-06	-1.8273430686666415e-07	0.9999999999977611	0.0	0.0	0.0	2.9473431462191557e-05	2.897321007404495e-05	9.799999995129802	0.49999739580777575	-2.376863178963851e-06	-0.8696499692803884
17273	306	220000000	1.477782566643857e-06	-1.5035299424096383e-06	-1.8273080338161404e-07	0.9999999999977611	0.0	0.0	0.0	2.9473429797509683e-05	2.8973206677001917e-05	9.79999999512425	0.4999973958079229	-2.376866382335879e-06	-0.8744462483040114
17274	306	240000000	1.477782393379068e-06	-1.5035298574504672e-06	-1.8272729989720506e-07	0.9999999999977611	0.0	0.0	0.0	2.9473428129290433e-05	2.8973203278935506e-05	9.799999995135348	0.49999739580807007	-2.376869585707334e-06	-0.8797622983536807
17275	306	260000000	1.4777822201143056e-06	-1.50352977249128e-06	-1.8272379641343794e-07	0.9999999999977611	0.0	0.0	0.0	2.9473426465028992e-05	2.8973199881673996e-05	9.79999999512147	0.4999973958082172	-2.376872789078192e-06	-0.8728216152357092
17276	306	280000000	1.4777820468495765e-06	-1.5035296875321155e-06	-1.8272029293031284e-07	0.9999999999977611	0.0	0.0	0.0	2.9473424798589602e-05	2.8973196483893004e-05	9.799999995118691	0.4999973958083644	-2.376875992448467e-06	-0.8667856383778001
17277	306	300000000	1.477781873584876e-06	-1.503529602572959e-06	-1.8271678944782826e-07	0.9999999999977611	0.0	0.0	0.0	2.9473423133807568e-05	2.897319308668485e-05	9.799999995129792	0.49999739580851155	-2.3768791958181505e-06	-0.8650865471273803
17278	306	320000000	1.4777817003202263e-06	-1.5035295176138241e-06	-1.8271328596598494e-07	0.9999999999977611	0.0	0.0	0.0	2.9473421467201143e-05	2.8973189687935198e-05	9.799999995132564	0.4999973958086587	-2.37688239918728e-06	-0.8613923595726456
17279	306	340000000	1.4777815270556076e-06	-1.503529432654741e-06	-1.8270978248478385e-07	0.9999999999977611	0.0	0.0	0.0	2.9473419799478126e-05	2.8973186290074894e-05	9.799999995124232	0.4999973958088058	-2.376885602555822e-06	-0.8799478260419905
17280	306	360000000	1.4777813537910139e-06	-1.5035293476956615e-06	-1.8270627900422376e-07	0.9999999999977611	0.0	0.0	0.0	2.9473418134071266e-05	2.8973182892698008e-05	9.799999995132557	0.49999739580895297	-2.3768888059237657e-06	-0.8652285585471674
17281	306	380000000	1.4777811805264337e-06	-1.5035292627365734e-06	-1.827027755243047e-07	0.9999999999977611	0.0	0.0	0.0	2.9473416469568258e-05	2.8973179495857632e-05	9.799999995124232	0.4999973958091001	-2.3768920092910924e-06	-0.8846259018727924
17282	306	400000000	1.477781007261889e-06	-1.503529177777498e-06	-1.8269927204502713e-07	0.9999999999977611	0.0	0.0	0.0	2.9473414803879573e-05	2.8973176098340752e-05	9.799999995132556	0.4999973958092472	-2.376895212657839e-06	-0.8527737886311623
17283	306	420000000	1.4777808339973719e-06	-1.5035290928184741e-06	-1.8269576856639125e-07	0.9999999999977611	0.0	0.0	0.0	2.947341313623861e-05	2.8973172700834673e-05	9.799999995118673	0.49999739580939434	-2.376898416023991e-06	-0.8869814828695722
17284	306	440000000	1.4777806607328974e-06	-1.5035290078594426e-06	-1.8269226508839635e-07	0.9999999999977611	0.0	0.0	0.0	2.9473411471372288e-05	2.8973169302546746e-05	9.799999995129774	0.4999973958095415	-2.3769016193895764e-06	-0.889145397497034
17285	306	460000000	1.4777804874684676e-06	-1.503528922900452e-06	-1.8268876161104328e-07	0.9999999999977611	0.0	0.0	0.0	2.9473409804133994e-05	2.8973165904012677e-05	9.799999995126994	0.49999739580968866	-2.3769048227545975e-06	-0.872142693352597
17286	306	480000000	1.4777803142040807e-06	-1.5035288379414727e-06	-1.826852581343315e-07	0.9999999999977611	0.0	0.0	0.0	2.9473408138781574e-05	2.8973162506097156e-05	9.799999995113113	0.4999973958098358	-2.3769080261190515e-06	-0.8749057887527404
17287	306	500000000	1.4777801409397003e-06	-1.503528752982499e-06	-1.8268175465826033e-07	0.9999999999977611	0.0	0.0	0.0	2.9473406473215008e-05	2.8973159109624624e-05	9.799999995132541	0.499997395809983	-2.3769112294828757e-06	-0.8706388381999307
17288	306	520000000	1.477779967675363e-06	-1.5035286680235442e-06	-1.8267825118283114e-07	0.9999999999977611	0.0	0.0	0.0	2.9473404807158345e-05	2.8973155711157132e-05	9.799999995118661	0.4999973958101301	-2.376914432846133e-06	-0.870795830670564
17289	306	540000000	1.4777797944110403e-06	-1.503528583064601e-06	-1.8267474770804339e-07	0.9999999999977611	0.0	0.0	0.0	2.947340314135884e-05	2.8973152314181425e-05	9.799999995132536	0.49999739581027725	-2.3769176362087742e-06	-0.8516967224684917
17290	306	560000000	1.477779621146772e-06	-1.503528498105706e-06	-1.8267124423389716e-07	0.9999999999977611	0.0	0.0	0.0	2.9473401474350113e-05	2.8973148916181776e-05	9.799999995129758	0.4999973958104244	-2.3769208395708675e-06	-0.8448333791391904
17291	306	580000000	1.47777944788252e-06	-1.5035284131468153e-06	-1.8266774076039176e-07	0.9999999999977611	0.0	0.0	0.0	2.947339980867839e-05	2.8973145518662436e-05	9.799999995135307	0.49999739581057157	-2.376924042932349e-06	-0.8479306043387943
17292	306	600000000	1.4777792746182848e-06	-1.5035283281879e-06	-1.8266423728752786e-07	0.9999999999977611	0.0	0.0	0.0	2.947339814494356e-05	2.897314212179102e-05	9.799999995132533	0.49999739581071867	-2.3769272462932182e-06	-0.8440088467991963
17293	306	620000000	1.4777791013541067e-06	-1.503528243229055e-06	-1.8266073381530538e-07	0.9999999999977611	0.0	0.0	0.0	2.9473396476308626e-05	2.897313872305559e-05	9.799999995118647	0.49999739581086583	-2.3769304496535442e-06	-0.8801637012017339
17294	306	640000000	1.4777789280899628e-06	-1.5035281582702094e-06	-1.8265723034372428e-07	0.9999999999977611	0.0	0.0	0.0	2.9473394810957202e-05	2.8973135325207537e-05	9.799999995118647	0.499997395811013	-2.3769336530132883e-06	-0.8543253339576524
17295	306	660000000	1.4777787548258422e-06	-1.5035280733113799e-06	-1.8265372687278418e-07	0.9999999999977611	0.0	0.0	0.0	2.947339314539509e-05	2.89731319277775e-05	9.799999995124194	0.4999973958111601	-2.3769368563724314e-06	-0.8561997888014764
17296	306	680000000	1.477778581561737e-06	-1.5035279883525508e-06	-1.8265022340248658e-07	0.9999999999977611	0.0	0.0	0.0	2.9473391480069028e-05	2.8973128530898075e-05	9.79999999513252	0.4999973958113072	-2.376940059730959e-06	-0.8746315911939418
17297	306	700000000	1.4777784082976784e-06	-1.503527903393736e-06	-1.826467199328292e-07	0.9999999999977611	0.0	0.0	0.0	2.947338981440628e-05	2.8973125132533918e-05	9.799999995129742	0.49999739581145436	-2.3769432630889274e-06	-0.8709647126300871
17298	306	720000000	1.4777782350336676e-06	-1.503527818434954e-06	-1.8264321646381374e-07	0.9999999999977611	0.0	0.0	0.0	2.9473388147841783e-05	2.8973121734460784e-05	9.799999995129738	0.4999973958116015	-2.3769464664463367e-06	-0.8512741866662223
17299	306	740000000	1.4777780617696607e-06	-1.5035277334762068e-06	-1.8263971299543978e-07	0.9999999999977611	0.0	0.0	0.0	2.9473386481063634e-05	2.8973118337929945e-05	9.799999995126962	0.4999973958117487	-2.3769496698031106e-06	-0.8568430912073232
17300	306	760000000	1.4777778885057245e-06	-1.5035276485174715e-06	-1.826362095277066e-07	0.9999999999977611	0.0	0.0	0.0	2.9473384815044647e-05	2.8973114938321344e-05	9.799999995124182	0.49999739581189584	-2.3769528731593666e-06	-0.8686133752035635
17301	306	780000000	1.4777777152418165e-06	-1.503527563558753e-06	-1.826327060606156e-07	0.9999999999977611	0.0	0.0	0.0	2.9473383149039335e-05	2.8973111540483188e-05	9.799999995118627	0.499997395812043	-2.3769560765150284e-06	-0.8645207522297538
17302	306	800000000	1.4777775419779309e-06	-1.5035274786000473e-06	-1.8262920259416535e-07	0.9999999999977611	0.0	0.0	0.0	2.947338148361312e-05	2.8973108143743735e-05	9.799999995132504	0.49999739581219016	-2.3769592798700897e-06	-0.8782128601207924
17303	306	820000000	1.4777773687140788e-06	-1.5035273936413423e-06	-1.8262569912835676e-07	0.9999999999977611	0.0	0.0	0.0	2.9473379818146814e-05	2.8973104746012172e-05	9.799999995118624	0.4999973958123373	-2.3769624832245665e-06	-0.8780120671138426
17304	306	840000000	1.477777195450236e-06	-1.5035273086826351e-06	-1.8262219566318966e-07	0.9999999999977611	0.0	0.0	0.0	2.9473378153438644e-05	2.8973101349026836e-05	9.799999995129726	0.49999739581248437	-2.376965686578418e-06	-0.8749433420013643
17305	306	860000000	1.4777770221864368e-06	-1.5035272237239775e-06	-1.826186921986639e-07	0.9999999999977611	0.0	0.0	0.0	2.9473376485993396e-05	2.897309795121278e-05	9.799999995135273	0.49999739581263153	-2.3769688899317045e-06	-0.875564206356876
17306	306	880000000	1.477776848922663e-06	-1.5035271387653225e-06	-1.8261518873477977e-07	0.9999999999977611	0.0	0.0	0.0	2.9473374820498902e-05	2.8973094553735052e-05	9.79999999512972	0.4999973958127787	-2.3769720932843923e-06	-0.8556226220374049
17307	306	900000000	1.477776675658935e-06	-1.5035270538066986e-06	-1.8261168527153676e-07	0.9999999999977611	0.0	0.0	0.0	2.9473373154246073e-05	2.897309115557516e-05	9.799999995124166	0.49999739581292585	-2.376975296636518e-06	-0.831740542303091
17308	306	920000000	1.477776502395232e-06	-1.5035269688480757e-06	-1.8260818180893477e-07	0.9999999999977611	0.0	0.0	0.0	2.9473371488753073e-05	2.897308775801237e-05	9.799999995129715	0.499997395813073	-2.3769784999880477e-06	-0.8656318654748673
17309	306	940000000	1.4777763291315608e-06	-1.5035268838894874e-06	-1.8260467834697485e-07	0.9999999999977611	0.0	0.0	0.0	2.947336982195049e-05	2.897308436013812e-05	9.799999995121384	0.49999739581322017	-2.376981703338989e-06	-0.84311620617052
17310	306	960000000	1.4777761558679054e-06	-1.5035267989308878e-06	-1.8260117488565617e-07	0.9999999999977611	0.0	0.0	0.0	2.9473368157441223e-05	2.897308096342986e-05	9.79999999511861	0.4999973958133673	-2.376984906689317e-06	-0.8698009386253038
17311	306	980000000	1.477775982604291e-06	-1.503526713972319e-06	-1.825976714249785e-07	0.9999999999977611	0.0	0.0	0.0	2.9473366491033553e-05	2.8973077565679203e-05	9.799999995129708	0.4999973958135144	-2.3769881100390746e-06	-0.8632362778236334
17312	307	0	1.4777758786461566e-06	-1.5035266629972018e-06	-1.8259556934888003e-07	0.9999999999977611	0.0	0.0	0.0	0.07520649225737572	0.07391846563251228	9.997091636300807	0.4999973958136027	-2.3769900320486804e-06	-0.8770407919104455
17313	307	20000000	1.4777758786461566e-06	-1.5035266629972018e-06	-1.8259556934888003e-07	0.9999999999977611	0.0	0.0	0.0	2.946911730590675e-05	2.8964412602331044e-05	9.79999999991289	0.4999973958136027	-2.3769900320486804e-06	-0.8391452452666505
17314	307	40000000	1.4777758786461566e-06	-1.5035266629972018e-06	-1.8259556934888003e-07	0.9999999999977611	0.0	0.0	0.0	2.946911730590675e-05	2.8964412602331044e-05	9.79999999991289	0.4999973958136027	-2.3769900320486804e-06	-0.8734003294608634
17315	307	60000000	1.4777758786461566e-06	-1.5035266629972018e-06	-1.8259556934888003e-07	0.9999999999977611	0.0	0.0	0.0	2.946911730590675e-05	2.8964412602331044e-05	9.79999999991289	0.4999973958136027	-2.3769900320486804e-06	-0.8767133500612059
17316	307	80000000	1.4777758786461566e-06	-1.5035266629972018e-06	-1.8259556934888003e-07	0.9999999999977611	0.0	0.0	0.0	2.946911730590675e-05	2.8964412602331044e-05	9.79999999991289	0.4999973958136027	-2.3769900320486804e-06	-0.8767230340908312
17317	307	100000000	1.4777758786461566e-06	-1.5035266629972018e-06	-1.8259556934888003e-07	0.9999999999977611	0.0	0.0	0.0	2.946911730590675e-05	2.8964412602331044e-05	9.79999999991289	0.4999973958136027	-2.3769900320486804e-06	-0.8842787369953223
17318	307	120000000	1.4777758786461566e-06	-1.5035266629972018e-06	-1.8259556934888003e-07	0.9999999999977611	0.0	0.0	0.0	2.946911730590675e-05	2.8964412602331044e-05	9.79999999991289	0.4999973958136027	-2.3769900320486804e-06	-0.8446311730288288
17319	307	140000000	1.4777758786461566e-06	-1.5035266629972018e-06	-1.8259556934888003e-07	0.9999999999977611	0.0	0.0	0.0	2.946911730590675e-05	2.8964412602331044e-05	9.79999999991289	0.4999973958136027	-2.3769900320486804e-06	-0.8935399867423692
17320	307	160000000	1.4777758786461566e-06	-1.5035266629972018e-06	-1.8259556934888003e-07	0.9999999999977611	0.0	0.0	0.0	2.946911730590675e-05	2.8964412602331044e-05	9.79999999991289	0.4999973958136027	-2.3769900320486804e-06	-0.8531314340741151
17321	307	180000000	1.4777758786461566e-06	-1.5035266629972018e-06	-1.8259556934888003e-07	0.9999999999977611	0.0	0.0	0.0	2.946911730590675e-05	2.8964412602331044e-05	9.79999999991289	0.4999973958136027	-2.3769900320486804e-06	-0.8691679124986895
17322	307	200000000	1.4777758786461566e-06	-1.5035266629972018e-06	-1.8259556934888003e-07	0.9999999999977611	0.0	0.0	0.0	2.946911730590675e-05	2.8964412602331044e-05	9.79999999991289	0.4999973958136027	-2.3769900320486804e-06	-0.8437801765288253
17323	307	220000000	1.4777758786461566e-06	-1.5035266629972018e-06	-1.8259556934888003e-07	0.9999999999977611	0.0	0.0	0.0	2.946911730590675e-05	2.8964412602331044e-05	9.79999999991289	0.4999973958136027	-2.3769900320486804e-06	-0.8657778091266443
17324	307	240000000	1.4777758786461566e-06	-1.5035266629972018e-06	-1.8259556934888003e-07	0.9999999999977611	0.0	0.0	0.0	2.946911730590675e-05	2.8964412602331044e-05	9.79999999991289	0.4999973958136027	-2.3769900320486804e-06	-0.8768686287385004
17325	307	260000000	1.4777758786461566e-06	-1.5035266629972018e-06	-1.8259556934888003e-07	0.9999999999977611	0.0	0.0	0.0	2.946911730590675e-05	2.8964412602331044e-05	9.79999999991289	0.4999973958136027	-2.3769900320486804e-06	-0.8586671829079243
17326	307	280000000	1.4777758786461566e-06	-1.5035266629972018e-06	-1.8259556934888003e-07	0.9999999999977611	0.0	0.0	0.0	2.946911730590675e-05	2.8964412602331044e-05	9.79999999991289	0.4999973958136027	-2.3769900320486804e-06	-0.8693106595627528
17327	307	300000000	1.4777758786461566e-06	-1.5035266629972018e-06	-1.8259556934888003e-07	0.9999999999977611	0.0	0.0	0.0	2.946911730590675e-05	2.8964412602331044e-05	9.79999999991289	0.4999973958136027	-2.3769900320486804e-06	-0.8481594614490651
17328	307	320000000	1.4777758786461566e-06	-1.5035266629972018e-06	-1.8259556934888003e-07	0.9999999999977611	0.0	0.0	0.0	2.946911730590675e-05	2.8964412602331044e-05	9.79999999991289	0.4999973958136027	-2.3769900320486804e-06	-0.8636741692900256
17329	307	340000000	1.4777758786461566e-06	-1.5035266629972018e-06	-1.8259556934888003e-07	0.9999999999977611	0.0	0.0	0.0	2.946911730590675e-05	2.8964412602331044e-05	9.79999999991289	0.4999973958136027	-2.3769900320486804e-06	-0.8479271809404964
17330	307	360000000	1.4777758786461566e-06	-1.5035266629972018e-06	-1.8259556934888003e-07	0.9999999999977611	0.0	0.0	0.0	2.946911730590675e-05	2.8964412602331044e-05	9.79999999991289	0.4999973958136027	-2.3769900320486804e-06	-0.851508860942224
17331	307	380000000	1.4777758786461566e-06	-1.5035266629972018e-06	-1.8259556934888003e-07	0.9999999999977611	0.0	0.0	0.0	2.946911730590675e-05	2.8964412602331044e-05	9.79999999991289	0.4999973958136027	-2.3769900320486804e-06	-0.8496377000753986
17332	307	400000000	1.4777758786461566e-06	-1.5035266629972018e-06	-1.8259556934888003e-07	0.9999999999977611	0.0	0.0	0.0	2.946911730590675e-05	2.8964412602331044e-05	9.79999999991289	0.4999973958136027	-2.3769900320486804e-06	-0.8691753851823473
17333	307	420000000	1.4777758786461566e-06	-1.5035266629972018e-06	-1.8259556934888003e-07	0.9999999999977611	0.0	0.0	0.0	2.946911730590675e-05	2.8964412602331044e-05	9.79999999991289	0.4999973958136027	-2.3769900320486804e-06	-0.8543149129690591
17334	307	440000000	1.4777758786461566e-06	-1.5035266629972018e-06	-1.8259556934888003e-07	0.9999999999977611	0.0	0.0	0.0	2.946911730590675e-05	2.8964412602331044e-05	9.79999999991289	0.4999973958136027	-2.3769900320486804e-06	-0.8688264909424872
17335	307	460000000	1.4777758786461566e-06	-1.5035266629972018e-06	-1.8259556934888003e-07	0.9999999999977611	0.0	0.0	0.0	2.946911730590675e-05	2.8964412602331044e-05	9.79999999991289	0.4999973958136027	-2.3769900320486804e-06	-0.8642524264648329
17336	307	480000000	1.4777758786461566e-06	-1.5035266629972018e-06	-1.8259556934888003e-07	0.9999999999977611	0.0	0.0	0.0	2.946911730590675e-05	2.8964412602331044e-05	9.79999999991289	0.4999973958136027	-2.3769900320486804e-06	-0.8504655757856614
17337	307	500000000	1.4777758786461566e-06	-1.5035266629972018e-06	-1.8259556934888003e-07	0.9999999999977611	0.0	0.0	0.0	2.946911730590675e-05	2.8964412602331044e-05	9.79999999991289	0.4999973958136027	-2.3769900320486804e-06	-0.853039522553328
17338	307	520000000	1.4777758786461566e-06	-1.5035266629972018e-06	-1.8259556934888003e-07	0.9999999999977611	0.0	0.0	0.0	2.946911730590675e-05	2.8964412602331044e-05	9.79999999991289	0.4999973958136027	-2.3769900320486804e-06	-0.8520510416626439
17339	307	540000000	1.4777758786461566e-06	-1.5035266629972018e-06	-1.8259556934888003e-07	0.9999999999977611	0.0	0.0	0.0	2.946911730590675e-05	2.8964412602331044e-05	9.79999999991289	0.4999973958136027	-2.3769900320486804e-06	-0.8725465806124287
17340	307	560000000	1.4777758786461566e-06	-1.5035266629972018e-06	-1.8259556934888003e-07	0.9999999999977611	0.0	0.0	0.0	2.946911730590675e-05	2.8964412602331044e-05	9.79999999991289	0.4999973958136027	-2.3769900320486804e-06	-0.8646974389782568
17341	307	580000000	1.4777758786461566e-06	-1.5035266629972018e-06	-1.8259556934888003e-07	0.9999999999977611	0.0	0.0	0.0	2.946911730590675e-05	2.8964412602331044e-05	9.79999999991289	0.4999973958136027	-2.3769900320486804e-06	-0.866469333319529
17342	307	600000000	1.4777758786461566e-06	-1.5035266629972018e-06	-1.8259556934888003e-07	0.9999999999977611	0.0	0.0	0.0	2.946911730590675e-05	2.8964412602331044e-05	9.79999999991289	0.4999973958136027	-2.3769900320486804e-06	-0.8544234867156804
17343	307	620000000	1.4777758786461566e-06	-1.5035266629972018e-06	-1.8259556934888003e-07	0.9999999999977611	0.0	0.0	0.0	2.946911730590675e-05	2.8964412602331044e-05	9.79999999991289	0.4999973958136027	-2.3769900320486804e-06	-0.8394161507700525
17344	307	640000000	1.4777758786461566e-06	-1.5035266629972018e-06	-1.8259556934888003e-07	0.9999999999977611	0.0	0.0	0.0	2.946911730590675e-05	2.8964412602331044e-05	9.79999999991289	0.4999973958136027	-2.3769900320486804e-06	-0.8755766137363805
17345	307	660000000	1.4777758786461566e-06	-1.5035266629972018e-06	-1.8259556934888003e-07	0.9999999999977611	0.0	0.0	0.0	2.946911730590675e-05	2.8964412602331044e-05	9.79999999991289	0.4999973958136027	-2.3769900320486804e-06	-0.8819152694364352
17346	307	680000000	1.4777758786461566e-06	-1.5035266629972018e-06	-1.8259556934888003e-07	0.9999999999977611	0.0	0.0	0.0	2.946911730590675e-05	2.8964412602331044e-05	9.79999999991289	0.4999973958136027	-2.3769900320486804e-06	-0.8545173236057366
17347	307	700000000	1.4777758786461566e-06	-1.5035266629972018e-06	-1.8259556934888003e-07	0.9999999999977611	0.0	0.0	0.0	2.946911730590675e-05	2.8964412602331044e-05	9.79999999991289	0.4999973958136027	-2.3769900320486804e-06	-0.8769436287460158
17348	307	720000000	1.4777758786461566e-06	-1.5035266629972018e-06	-1.8259556934888003e-07	0.9999999999977611	0.0	0.0	0.0	2.946911730590675e-05	2.8964412602331044e-05	9.79999999991289	0.4999973958136027	-2.3769900320486804e-06	-0.8685728393700882
17349	307	740000000	1.4777758786461566e-06	-1.5035266629972018e-06	-1.8259556934888003e-07	0.9999999999977611	0.0	0.0	0.0	2.946911730590675e-05	2.8964412602331044e-05	9.79999999991289	0.4999973958136027	-2.3769900320486804e-06	-0.8849466091222525
17350	307	760000000	1.4777758786461566e-06	-1.5035266629972018e-06	-1.8259556934888003e-07	0.9999999999977611	0.0	0.0	0.0	2.946911730590675e-05	2.8964412602331044e-05	9.79999999991289	0.4999973958136027	-2.3769900320486804e-06	-0.8729316854528066
17351	307	780000000	1.4777758786461566e-06	-1.5035266629972018e-06	-1.8259556934888003e-07	0.9999999999977611	0.0	0.0	0.0	2.946911730590675e-05	2.8964412602331044e-05	9.79999999991289	0.4999973958136027	-2.3769900320486804e-06	-0.8646518915641057
17352	307	800000000	1.4777758786461566e-06	-1.5035266629972018e-06	-1.8259556934888003e-07	0.9999999999977611	0.0	0.0	0.0	2.946911730590675e-05	2.8964412602331044e-05	9.79999999991289	0.4999973958136027	-2.3769900320486804e-06	-0.8601000203866247
17353	307	820000000	1.4777758786461566e-06	-1.5035266629972018e-06	-1.8259556934888003e-07	0.9999999999977611	0.0	0.0	0.0	2.946911730590675e-05	2.8964412602331044e-05	9.79999999991289	0.4999973958136027	-2.3769900320486804e-06	-0.8724987008615729
17354	307	840000000	1.4777758786461566e-06	-1.5035266629972018e-06	-1.8259556934888003e-07	0.9999999999977611	0.0	0.0	0.0	2.946911730590675e-05	2.8964412602331044e-05	9.79999999991289	0.4999973958136027	-2.3769900320486804e-06	-0.8515167403416184
17355	307	860000000	1.4777758786461566e-06	-1.5035266629972018e-06	-1.8259556934888003e-07	0.9999999999977611	0.0	0.0	0.0	2.946911730590675e-05	2.8964412602331044e-05	9.79999999991289	0.4999973958136027	-2.3769900320486804e-06	-0.8722789345096226
17356	307	880000000	1.4777758786461566e-06	-1.5035266629972018e-06	-1.8259556934888003e-07	0.9999999999977611	0.0	0.0	0.0	2.946911730590675e-05	2.8964412602331044e-05	9.79999999991289	0.4999973958136027	-2.3769900320486804e-06	-0.8644218219988118
17357	307	900000000	1.4777758786461566e-06	-1.5035266629972018e-06	-1.8259556934888003e-07	0.9999999999977611	0.0	0.0	0.0	2.946911730590675e-05	2.8964412602331044e-05	9.79999999991289	0.4999973958136027	-2.3769900320486804e-06	-0.8954525365742894
17358	307	920000000	1.4777758786461566e-06	-1.5035266629972018e-06	-1.8259556934888003e-07	0.9999999999977611	0.0	0.0	0.0	2.946911730590675e-05	2.8964412602331044e-05	9.79999999991289	0.4999973958136027	-2.3769900320486804e-06	-0.8545124077941909
17359	307	940000000	1.4777758786461566e-06	-1.5035266629972018e-06	-1.8259556934888003e-07	0.9999999999977611	0.0	0.0	0.0	2.946911730590675e-05	2.8964412602331044e-05	9.79999999991289	0.4999973958136027	-2.3769900320486804e-06	-0.8555428809850205
17360	307	960000000	1.4777758786461566e-06	-1.5035266629972018e-06	-1.8259556934888003e-07	0.9999999999977611	0.0	0.0	0.0	2.946911730590675e-05	2.8964412602331044e-05	9.79999999991289	0.4999973958136027	-2.3769900320486804e-06	-0.8717719066397267
17361	307	980000000	1.4777758786461566e-06	-1.5035266629972018e-06	-1.8259556934888003e-07	0.9999999999977611	0.0	0.0	0.0	2.946911730590675e-05	2.8964412602331044e-05	9.79999999991289	0.4999973958136027	-2.3769900320486804e-06	-0.8629535980458194
17362	308	0	1.4777758786461566e-06	-1.5035266629972018e-06	-1.8259556934888003e-07	0.9999999999977611	0.0	0.0	0.0	2.946911730590675e-05	2.8964412602331044e-05	9.79999999991289	0.4999973958136027	-2.3769900320486804e-06	-0.867074645583008
17363	308	20000000	1.4777758786461566e-06	-1.5035266629972018e-06	-1.8259556934888003e-07	0.9999999999977611	0.0	0.0	0.0	2.946911730590675e-05	2.8964412602331044e-05	9.79999999991289	0.4999973958136027	-2.3769900320486804e-06	-0.8560561015105411
17364	308	40000000	1.4777758786461566e-06	-1.5035266629972018e-06	-1.8259556934888003e-07	0.9999999999977611	0.0	0.0	0.0	2.946911730590675e-05	2.8964412602331044e-05	9.79999999991289	0.4999973958136027	-2.3769900320486804e-06	-0.8726053798978712
17365	308	60000000	1.4777758786461566e-06	-1.5035266629972018e-06	-1.8259556934888003e-07	0.9999999999977611	0.0	0.0	0.0	2.946911730590675e-05	2.8964412602331044e-05	9.79999999991289	0.4999973958136027	-2.3769900320486804e-06	-0.865647316350803
17366	308	80000000	1.4777758786461566e-06	-1.5035266629972018e-06	-1.8259556934888003e-07	0.9999999999977611	0.0	0.0	0.0	2.946911730590675e-05	2.8964412602331044e-05	9.79999999991289	0.4999973958136027	-2.3769900320486804e-06	-0.8992766577852832
17367	308	100000000	1.4777758786461566e-06	-1.5035266629972018e-06	-1.8259556934888003e-07	0.9999999999977611	0.0	0.0	0.0	2.946911730590675e-05	2.8964412602331044e-05	9.79999999991289	0.4999973958136027	-2.3769900320486804e-06	-0.8657002327201038
17368	308	120000000	1.4777758786461566e-06	-1.5035266629972018e-06	-1.8259556934888003e-07	0.9999999999977611	0.0	0.0	0.0	2.946911730590675e-05	2.8964412602331044e-05	9.79999999991289	0.4999973958136027	-2.3769900320486804e-06	-0.8804074630069904
17369	308	140000000	1.4777758786461566e-06	-1.5035266629972018e-06	-1.8259556934888003e-07	0.9999999999977611	0.0	0.0	0.0	2.946911730590675e-05	2.8964412602331044e-05	9.79999999991289	0.4999973958136027	-2.3769900320486804e-06	-0.8660518703976909
17370	308	160000000	1.4777758786461566e-06	-1.5035266629972018e-06	-1.8259556934888003e-07	0.9999999999977611	0.0	0.0	0.0	2.946911730590675e-05	2.8964412602331044e-05	9.79999999991289	0.4999973958136027	-2.3769900320486804e-06	-0.881812822250517
17371	308	180000000	1.4777758786461566e-06	-1.5035266629972018e-06	-1.8259556934888003e-07	0.9999999999977611	0.0	0.0	0.0	2.946911730590675e-05	2.8964412602331044e-05	9.79999999991289	0.4999973958136027	-2.3769900320486804e-06	-0.8706751741770787
17372	308	200000000	1.4777758786461566e-06	-1.5035266629972018e-06	-1.8259556934888003e-07	0.9999999999977611	0.0	0.0	0.0	2.946911730590675e-05	2.8964412602331044e-05	9.79999999991289	0.4999973958136027	-2.3769900320486804e-06	-0.8445088794786858
17373	308	220000000	1.4777758786461566e-06	-1.5035266629972018e-06	-1.8259556934888003e-07	0.9999999999977611	0.0	0.0	0.0	2.946911730590675e-05	2.8964412602331044e-05	9.79999999991289	0.4999973958136027	-2.3769900320486804e-06	-0.8601631811880982
17374	308	240000000	1.4777758786461566e-06	-1.5035266629972018e-06	-1.8259556934888003e-07	0.9999999999977611	0.0	0.0	0.0	2.946911730590675e-05	2.8964412602331044e-05	9.79999999991289	0.4999973958136027	-2.3769900320486804e-06	-0.8711888907808163
17375	308	260000000	1.4777758786461566e-06	-1.5035266629972018e-06	-1.8259556934888003e-07	0.9999999999977611	0.0	0.0	0.0	2.946911730590675e-05	2.8964412602331044e-05	9.79999999991289	0.4999973958136027	-2.3769900320486804e-06	-0.8645370827040357
17376	308	280000000	1.4777758786461566e-06	-1.5035266629972018e-06	-1.8259556934888003e-07	0.9999999999977611	0.0	0.0	0.0	2.946911730590675e-05	2.8964412602331044e-05	9.79999999991289	0.4999973958136027	-2.3769900320486804e-06	-0.8821027736146638
17377	308	300000000	1.4777758786461566e-06	-1.5035266629972018e-06	-1.8259556934888003e-07	0.9999999999977611	0.0	0.0	0.0	2.946911730590675e-05	2.8964412602331044e-05	9.79999999991289	0.4999973958136027	-2.3769900320486804e-06	-0.8563927278009437
17378	308	320000000	1.4777758786461566e-06	-1.5035266629972018e-06	-1.8259556934888003e-07	0.9999999999977611	0.0	0.0	0.0	2.946911730590675e-05	2.8964412602331044e-05	9.79999999991289	0.4999973958136027	-2.3769900320486804e-06	-0.853109226553184
17379	308	340000000	1.4777758786461566e-06	-1.5035266629972018e-06	-1.8259556934888003e-07	0.9999999999977611	0.0	0.0	0.0	2.946911730590675e-05	2.8964412602331044e-05	9.79999999991289	0.4999973958136027	-2.3769900320486804e-06	-0.854484324731867
17380	308	360000000	1.4777758786461566e-06	-1.5035266629972018e-06	-1.8259556934888003e-07	0.9999999999977611	0.0	0.0	0.0	2.946911730590675e-05	2.8964412602331044e-05	9.79999999991289	0.4999973958136027	-2.3769900320486804e-06	-0.8746925244020282
17381	308	380000000	1.4777758786461566e-06	-1.5035266629972018e-06	-1.8259556934888003e-07	0.9999999999977611	0.0	0.0	0.0	2.946911730590675e-05	2.8964412602331044e-05	9.79999999991289	0.4999973958136027	-2.3769900320486804e-06	-0.8755589877336067
17382	308	400000000	1.4777758786461566e-06	-1.5035266629972018e-06	-1.8259556934888003e-07	0.9999999999977611	0.0	0.0	0.0	2.946911730590675e-05	2.8964412602331044e-05	9.79999999991289	0.4999973958136027	-2.3769900320486804e-06	-0.8472299051623248
17383	308	420000000	1.4777758786461566e-06	-1.5035266629972018e-06	-1.8259556934888003e-07	0.9999999999977611	0.0	0.0	0.0	2.946911730590675e-05	2.8964412602331044e-05	9.79999999991289	0.4999973958136027	-2.3769900320486804e-06	-0.885163587826996
17384	308	440000000	1.4777758786461566e-06	-1.5035266629972018e-06	-1.8259556934888003e-07	0.9999999999977611	0.0	0.0	0.0	2.946911730590675e-05	2.8964412602331044e-05	9.79999999991289	0.4999973958136027	-2.3769900320486804e-06	-0.8679739509114669
17385	308	460000000	1.4777758786461566e-06	-1.5035266629972018e-06	-1.8259556934888003e-07	0.9999999999977611	0.0	0.0	0.0	2.946911730590675e-05	2.8964412602331044e-05	9.79999999991289	0.4999973958136027	-2.3769900320486804e-06	-0.8671401011760302
17386	308	480000000	1.4777758786461566e-06	-1.5035266629972018e-06	-1.8259556934888003e-07	0.9999999999977611	0.0	0.0	0.0	2.946911730590675e-05	2.8964412602331044e-05	9.79999999991289	0.4999973958136027	-2.3769900320486804e-06	-0.8676684611329573
17387	308	500000000	1.4777758786461566e-06	-1.5035266629972018e-06	-1.8259556934888003e-07	0.9999999999977611	0.0	0.0	0.0	2.946911730590675e-05	2.8964412602331044e-05	9.79999999991289	0.4999973958136027	-2.3769900320486804e-06	-0.8939506610869407
17388	308	520000000	1.4777758786461566e-06	-1.5035266629972018e-06	-1.8259556934888003e-07	0.9999999999977611	0.0	0.0	0.0	2.946911730590675e-05	2.8964412602331044e-05	9.79999999991289	0.4999973958136027	-2.3769900320486804e-06	-0.8649847272191266
17389	308	540000000	1.4777758786461566e-06	-1.5035266629972018e-06	-1.8259556934888003e-07	0.9999999999977611	0.0	0.0	0.0	2.946911730590675e-05	2.8964412602331044e-05	9.79999999991289	0.4999973958136027	-2.3769900320486804e-06	-0.8596836926868049
17390	308	560000000	1.4777758786461566e-06	-1.5035266629972018e-06	-1.8259556934888003e-07	0.9999999999977611	0.0	0.0	0.0	2.946911730590675e-05	2.8964412602331044e-05	9.79999999991289	0.4999973958136027	-2.3769900320486804e-06	-0.8745190534089476
17391	308	580000000	1.4777758786461566e-06	-1.5035266629972018e-06	-1.8259556934888003e-07	0.9999999999977611	0.0	0.0	0.0	2.946911730590675e-05	2.8964412602331044e-05	9.79999999991289	0.4999973958136027	-2.3769900320486804e-06	-0.8921967603368754
17392	308	600000000	1.4777758786461566e-06	-1.5035266629972018e-06	-1.8259556934888003e-07	0.9999999999977611	0.0	0.0	0.0	2.946911730590675e-05	2.8964412602331044e-05	9.79999999991289	0.4999973958136027	-2.3769900320486804e-06	-0.850495246892722
17393	308	620000000	1.4777758786461566e-06	-1.5035266629972018e-06	-1.8259556934888003e-07	0.9999999999977611	0.0	0.0	0.0	2.946911730590675e-05	2.8964412602331044e-05	9.79999999991289	0.4999973958136027	-2.3769900320486804e-06	-0.8773863038802956
17394	308	640000000	1.4777758786461566e-06	-1.5035266629972018e-06	-1.8259556934888003e-07	0.9999999999977611	0.0	0.0	0.0	2.946911730590675e-05	2.8964412602331044e-05	9.79999999991289	0.4999973958136027	-2.3769900320486804e-06	-0.8648881717761617
17395	308	660000000	1.4777758786461566e-06	-1.5035266629972018e-06	-1.8259556934888003e-07	0.9999999999977611	0.0	0.0	0.0	2.946911730590675e-05	2.8964412602331044e-05	9.79999999991289	0.4999973958136027	-2.3769900320486804e-06	-0.849879039647021
17396	308	680000000	1.4777758786461566e-06	-1.5035266629972018e-06	-1.8259556934888003e-07	0.9999999999977611	0.0	0.0	0.0	2.946911730590675e-05	2.8964412602331044e-05	9.79999999991289	0.4999973958136027	-2.3769900320486804e-06	-0.8512043513566634
17397	308	700000000	1.4777758786461566e-06	-1.5035266629972018e-06	-1.8259556934888003e-07	0.9999999999977611	0.0	0.0	0.0	2.946911730590675e-05	2.8964412602331044e-05	9.79999999991289	0.4999973958136027	-2.3769900320486804e-06	-0.8754276088270926
17398	308	720000000	1.4777758786461566e-06	-1.5035266629972018e-06	-1.8259556934888003e-07	0.9999999999977611	0.0	0.0	0.0	2.946911730590675e-05	2.8964412602331044e-05	9.79999999991289	0.4999973958136027	-2.3769900320486804e-06	-0.8624245525215596
17399	308	740000000	1.4777758786461566e-06	-1.5035266629972018e-06	-1.8259556934888003e-07	0.9999999999977611	0.0	0.0	0.0	2.946911730590675e-05	2.8964412602331044e-05	9.79999999991289	0.4999973958136027	-2.3769900320486804e-06	-0.8668587556728701
17400	308	760000000	1.4777758786461566e-06	-1.5035266629972018e-06	-1.8259556934888003e-07	0.9999999999977611	0.0	0.0	0.0	2.946911730590675e-05	2.8964412602331044e-05	9.79999999991289	0.4999973958136027	-2.3769900320486804e-06	-0.8555723731416629
17401	308	780000000	1.4777758786461566e-06	-1.5035266629972018e-06	-1.8259556934888003e-07	0.9999999999977611	0.0	0.0	0.0	2.946911730590675e-05	2.8964412602331044e-05	9.79999999991289	0.4999973958136027	-2.3769900320486804e-06	-0.8678435404550323
17402	308	800000000	1.4777758786461566e-06	-1.5035266629972018e-06	-1.8259556934888003e-07	0.9999999999977611	0.0	0.0	0.0	2.946911730590675e-05	2.8964412602331044e-05	9.79999999991289	0.4999973958136027	-2.3769900320486804e-06	-0.8573798504689827
17403	308	820000000	1.4777758786461566e-06	-1.5035266629972018e-06	-1.8259556934888003e-07	0.9999999999977611	0.0	0.0	0.0	2.946911730590675e-05	2.8964412602331044e-05	9.79999999991289	0.4999973958136027	-2.3769900320486804e-06	-0.8768991738399663
17404	308	840000000	1.4777758786461566e-06	-1.5035266629972018e-06	-1.8259556934888003e-07	0.9999999999977611	0.0	0.0	0.0	2.946911730590675e-05	2.8964412602331044e-05	9.79999999991289	0.4999973958136027	-2.3769900320486804e-06	-0.8634934680955408
17405	308	860000000	1.4777758786461566e-06	-1.5035266629972018e-06	-1.8259556934888003e-07	0.9999999999977611	0.0	0.0	0.0	2.946911730590675e-05	2.8964412602331044e-05	9.79999999991289	0.4999973958136027	-2.3769900320486804e-06	-0.8381927065180041
17406	308	880000000	1.4777758786461566e-06	-1.5035266629972018e-06	-1.8259556934888003e-07	0.9999999999977611	0.0	0.0	0.0	2.946911730590675e-05	2.8964412602331044e-05	9.79999999991289	0.4999973958136027	-2.3769900320486804e-06	-0.8624348622828755
17407	308	900000000	1.4777758786461566e-06	-1.5035266629972018e-06	-1.8259556934888003e-07	0.9999999999977611	0.0	0.0	0.0	2.946911730590675e-05	2.8964412602331044e-05	9.79999999991289	0.4999973958136027	-2.3769900320486804e-06	-0.8683140577235068
17408	308	920000000	1.4777758786461566e-06	-1.5035266629972018e-06	-1.8259556934888003e-07	0.9999999999977611	0.0	0.0	0.0	2.946911730590675e-05	2.8964412602331044e-05	9.79999999991289	0.4999973958136027	-2.3769900320486804e-06	-0.8710658506393296
17409	308	940000000	1.4777758786461566e-06	-1.5035266629972018e-06	-1.8259556934888003e-07	0.9999999999977611	0.0	0.0	0.0	2.946911730590675e-05	2.8964412602331044e-05	9.79999999991289	0.4999973958136027	-2.3769900320486804e-06	-0.8502504888999379
17410	308	960000000	1.4777758786461566e-06	-1.5035266629972018e-06	-1.8259556934888003e-07	0.9999999999977611	0.0	0.0	0.0	2.946911730590675e-05	2.8964412602331044e-05	9.79999999991289	0.4999973958136027	-2.3769900320486804e-06	-0.8633151674170372
17411	308	980000000	1.4777758786461566e-06	-1.5035266629972018e-06	-1.8259556934888003e-07	0.9999999999977611	0.0	0.0	0.0	2.946911730590675e-05	2.8964412602331044e-05	9.79999999991289	0.4999973958136027	-2.3769900320486804e-06	-0.8422328586098903
17412	309	0	1.4777758786461566e-06	-1.5035266629972018e-06	-1.8259556934888003e-07	0.9999999999977611	0.0	0.0	0.0	2.946911730590675e-05	2.8964412602331044e-05	9.79999999991289	0.4999973958136027	-2.3769900320486804e-06	-0.8833047558972716
17413	309	20000000	1.4777758786461566e-06	-1.5035266629972018e-06	-1.8259556934888003e-07	0.9999999999977611	0.0	0.0	0.0	2.946911730590675e-05	2.8964412602331044e-05	9.79999999991289	0.4999973958136027	-2.3769900320486804e-06	-0.8678890199342308
17414	309	40000000	1.4777758786461566e-06	-1.5035266629972018e-06	-1.8259556934888003e-07	0.9999999999977611	0.0	0.0	0.0	2.946911730590675e-05	2.8964412602331044e-05	9.79999999991289	0.4999973958136027	-2.3769900320486804e-06	-0.8702388244352548
17415	309	60000000	1.4777758786461566e-06	-1.5035266629972018e-06	-1.8259556934888003e-07	0.9999999999977611	0.0	0.0	0.0	2.946911730590675e-05	2.8964412602331044e-05	9.79999999991289	0.4999973958136027	-2.3769900320486804e-06	-0.852087646974371
17416	309	80000000	1.4777758786461566e-06	-1.5035266629972018e-06	-1.8259556934888003e-07	0.9999999999977611	0.0	0.0	0.0	2.946911730590675e-05	2.8964412602331044e-05	9.79999999991289	0.4999973958136027	-2.3769900320486804e-06	-0.8630828623356495
17417	309	100000000	1.4777758786461566e-06	-1.5035266629972018e-06	-1.8259556934888003e-07	0.9999999999977611	0.0	0.0	0.0	2.946911730590675e-05	2.8964412602331044e-05	9.79999999991289	0.4999973958136027	-2.3769900320486804e-06	-0.8570814970823475
17418	309	120000000	1.4777758786461566e-06	-1.5035266629972018e-06	-1.8259556934888003e-07	0.9999999999977611	0.0	0.0	0.0	2.946911730590675e-05	2.8964412602331044e-05	9.79999999991289	0.4999973958136027	-2.3769900320486804e-06	-0.8489282101825826
17419	309	140000000	1.4777758786461566e-06	-1.5035266629972018e-06	-1.8259556934888003e-07	0.9999999999977611	0.0	0.0	0.0	2.946911730590675e-05	2.8964412602331044e-05	9.79999999991289	0.4999973958136027	-2.3769900320486804e-06	-0.8641989685377718
17420	309	160000000	1.4777758786461566e-06	-1.5035266629972018e-06	-1.8259556934888003e-07	0.9999999999977611	0.0	0.0	0.0	2.946911730590675e-05	2.8964412602331044e-05	9.79999999991289	0.4999973958136027	-2.3769900320486804e-06	-0.8613946971784173
17421	309	180000000	1.4777758786461566e-06	-1.5035266629972018e-06	-1.8259556934888003e-07	0.9999999999977611	0.0	0.0	0.0	2.946911730590675e-05	2.8964412602331044e-05	9.79999999991289	0.4999973958136027	-2.3769900320486804e-06	-0.8517396830930248
17422	309	200000000	1.4777758786461566e-06	-1.5035266629972018e-06	-1.8259556934888003e-07	0.9999999999977611	0.0	0.0	0.0	2.946911730590675e-05	2.8964412602331044e-05	9.79999999991289	0.4999973958136027	-2.3769900320486804e-06	-0.8531070983987952
17423	309	220000000	1.4777758786461566e-06	-1.5035266629972018e-06	-1.8259556934888003e-07	0.9999999999977611	0.0	0.0	0.0	2.946911730590675e-05	2.8964412602331044e-05	9.79999999991289	0.4999973958136027	-2.3769900320486804e-06	-0.8576378262445197
17424	309	240000000	1.4777758786461566e-06	-1.5035266629972018e-06	-1.8259556934888003e-07	0.9999999999977611	0.0	0.0	0.0	2.946911730590675e-05	2.8964412602331044e-05	9.79999999991289	0.4999973958136027	-2.3769900320486804e-06	-0.8609580864216434
17425	309	260000000	1.4777758786461566e-06	-1.5035266629972018e-06	-1.8259556934888003e-07	0.9999999999977611	0.0	0.0	0.0	2.946911730590675e-05	2.8964412602331044e-05	9.79999999991289	0.4999973958136027	-2.3769900320486804e-06	-0.860250977637829
17426	309	280000000	1.4777758786461566e-06	-1.5035266629972018e-06	-1.8259556934888003e-07	0.9999999999977611	0.0	0.0	0.0	2.946911730590675e-05	2.8964412602331044e-05	9.79999999991289	0.4999973958136027	-2.3769900320486804e-06	-0.8828508695678426
17427	309	300000000	1.4777758786461566e-06	-1.5035266629972018e-06	-1.8259556934888003e-07	0.9999999999977611	0.0	0.0	0.0	2.946911730590675e-05	2.8964412602331044e-05	9.79999999991289	0.4999973958136027	-2.3769900320486804e-06	-0.8464904269838479
17428	309	320000000	1.4777758786461566e-06	-1.5035266629972018e-06	-1.8259556934888003e-07	0.9999999999977611	0.0	0.0	0.0	2.946911730590675e-05	2.8964412602331044e-05	9.79999999991289	0.4999973958136027	-2.3769900320486804e-06	-0.8851746635109253
17429	309	340000000	1.4777758786461566e-06	-1.5035266629972018e-06	-1.8259556934888003e-07	0.9999999999977611	0.0	0.0	0.0	2.946911730590675e-05	2.8964412602331044e-05	9.79999999991289	0.4999973958136027	-2.3769900320486804e-06	-0.877793417143426
17430	309	360000000	1.4777758786461566e-06	-1.5035266629972018e-06	-1.8259556934888003e-07	0.9999999999977611	0.0	0.0	0.0	2.946911730590675e-05	2.8964412602331044e-05	9.79999999991289	0.4999973958136027	-2.3769900320486804e-06	-0.8702622956133881
17431	309	380000000	1.4777758786461566e-06	-1.5035266629972018e-06	-1.8259556934888003e-07	0.9999999999977611	0.0	0.0	0.0	2.946911730590675e-05	2.8964412602331044e-05	9.79999999991289	0.4999973958136027	-2.3769900320486804e-06	-0.8922194846597471
17432	309	400000000	1.4777758786461566e-06	-1.5035266629972018e-06	-1.8259556934888003e-07	0.9999999999977611	0.0	0.0	0.0	2.946911730590675e-05	2.8964412602331044e-05	9.79999999991289	0.4999973958136027	-2.3769900320486804e-06	-0.8539936053679638
17433	309	420000000	1.4777758786461566e-06	-1.5035266629972018e-06	-1.8259556934888003e-07	0.9999999999977611	0.0	0.0	0.0	2.946911730590675e-05	2.8964412602331044e-05	9.79999999991289	0.4999973958136027	-2.3769900320486804e-06	-0.8886616558053169
17434	309	440000000	1.4777758786461566e-06	-1.5035266629972018e-06	-1.8259556934888003e-07	0.9999999999977611	0.0	0.0	0.0	2.946911730590675e-05	2.8964412602331044e-05	9.79999999991289	0.4999973958136027	-2.3769900320486804e-06	-0.8467596409476023
17435	309	460000000	1.4777758786461566e-06	-1.5035266629972018e-06	-1.8259556934888003e-07	0.9999999999977611	0.0	0.0	0.0	2.946911730590675e-05	2.8964412602331044e-05	9.79999999991289	0.4999973958136027	-2.3769900320486804e-06	-0.8990460608341809
17436	309	480000000	1.4777758786461566e-06	-1.5035266629972018e-06	-1.8259556934888003e-07	0.9999999999977611	0.0	0.0	0.0	2.946911730590675e-05	2.8964412602331044e-05	9.79999999991289	0.4999973958136027	-2.3769900320486804e-06	-0.8857924871535678
17437	309	500000000	1.4777758786461566e-06	-1.5035266629972018e-06	-1.8259556934888003e-07	0.9999999999977611	0.0	0.0	0.0	2.946911730590675e-05	2.8964412602331044e-05	9.79999999991289	0.4999973958136027	-2.3769900320486804e-06	-0.8594720346551838
17438	309	520000000	1.4777758786461566e-06	-1.5035266629972018e-06	-1.8259556934888003e-07	0.9999999999977611	0.0	0.0	0.0	2.946911730590675e-05	2.8964412602331044e-05	9.79999999991289	0.4999973958136027	-2.3769900320486804e-06	-0.8628617170127395
17439	309	540000000	1.4777758786461566e-06	-1.5035266629972018e-06	-1.8259556934888003e-07	0.9999999999977611	0.0	0.0	0.0	2.946911730590675e-05	2.8964412602331044e-05	9.79999999991289	0.4999973958136027	-2.3769900320486804e-06	-0.8845111806284166
17440	309	560000000	1.4777758786461566e-06	-1.5035266629972018e-06	-1.8259556934888003e-07	0.9999999999977611	0.0	0.0	0.0	2.946911730590675e-05	2.8964412602331044e-05	9.79999999991289	0.4999973958136027	-2.3769900320486804e-06	-0.8776699172030761
17441	309	580000000	1.4777758786461566e-06	-1.5035266629972018e-06	-1.8259556934888003e-07	0.9999999999977611	0.0	0.0	0.0	2.946911730590675e-05	2.8964412602331044e-05	9.79999999991289	0.4999973958136027	-2.3769900320486804e-06	-0.8608768637377727
17442	309	600000000	1.4777758786461566e-06	-1.5035266629972018e-06	-1.8259556934888003e-07	0.9999999999977611	0.0	0.0	0.0	2.946911730590675e-05	2.8964412602331044e-05	9.79999999991289	0.4999973958136027	-2.3769900320486804e-06	-0.8592302817818213
17443	309	620000000	1.4777758786461566e-06	-1.5035266629972018e-06	-1.8259556934888003e-07	0.9999999999977611	0.0	0.0	0.0	2.946911730590675e-05	2.8964412602331044e-05	9.79999999991289	0.4999973958136027	-2.3769900320486804e-06	-0.8641771196822693
17444	309	640000000	1.4777758786461566e-06	-1.5035266629972018e-06	-1.8259556934888003e-07	0.9999999999977611	0.0	0.0	0.0	2.946911730590675e-05	2.8964412602331044e-05	9.79999999991289	0.4999973958136027	-2.3769900320486804e-06	-0.8320786724469726
17445	309	660000000	1.4777758786461566e-06	-1.5035266629972018e-06	-1.8259556934888003e-07	0.9999999999977611	0.0	0.0	0.0	2.946911730590675e-05	2.8964412602331044e-05	9.79999999991289	0.4999973958136027	-2.3769900320486804e-06	-0.8889156734302833
17446	309	680000000	1.4777758786461566e-06	-1.5035266629972018e-06	-1.8259556934888003e-07	0.9999999999977611	0.0	0.0	0.0	2.946911730590675e-05	2.8964412602331044e-05	9.79999999991289	0.4999973958136027	-2.3769900320486804e-06	-0.8633209503200242
17447	309	700000000	1.4777758786461566e-06	-1.5035266629972018e-06	-1.8259556934888003e-07	0.9999999999977611	0.0	0.0	0.0	2.946911730590675e-05	2.8964412602331044e-05	9.79999999991289	0.4999973958136027	-2.3769900320486804e-06	-0.8636658238445216
17448	309	720000000	1.4777758786461566e-06	-1.5035266629972018e-06	-1.8259556934888003e-07	0.9999999999977611	0.0	0.0	0.0	2.946911730590675e-05	2.8964412602331044e-05	9.79999999991289	0.4999973958136027	-2.3769900320486804e-06	-0.8668816210730379
17449	309	740000000	1.4777758786461566e-06	-1.5035266629972018e-06	-1.8259556934888003e-07	0.9999999999977611	0.0	0.0	0.0	2.946911730590675e-05	2.8964412602331044e-05	9.79999999991289	0.4999973958136027	-2.3769900320486804e-06	-0.8605221519506291
17450	309	760000000	1.4777758786461566e-06	-1.5035266629972018e-06	-1.8259556934888003e-07	0.9999999999977611	0.0	0.0	0.0	2.946911730590675e-05	2.8964412602331044e-05	9.79999999991289	0.4999973958136027	-2.3769900320486804e-06	-0.8703294509305713
17451	309	780000000	1.4777758786461566e-06	-1.5035266629972018e-06	-1.8259556934888003e-07	0.9999999999977611	0.0	0.0	0.0	2.946911730590675e-05	2.8964412602331044e-05	9.79999999991289	0.4999973958136027	-2.3769900320486804e-06	-0.8650741939277893
17452	309	800000000	1.4777758786461566e-06	-1.5035266629972018e-06	-1.8259556934888003e-07	0.9999999999977611	0.0	0.0	0.0	2.946911730590675e-05	2.8964412602331044e-05	9.79999999991289	0.4999973958136027	-2.3769900320486804e-06	-0.8596775589800142
17453	309	820000000	1.4777758786461566e-06	-1.5035266629972018e-06	-1.8259556934888003e-07	0.9999999999977611	0.0	0.0	0.0	2.946911730590675e-05	2.8964412602331044e-05	9.79999999991289	0.4999973958136027	-2.3769900320486804e-06	-0.8606172805150286
17454	309	840000000	1.4777758786461566e-06	-1.5035266629972018e-06	-1.8259556934888003e-07	0.9999999999977611	0.0	0.0	0.0	2.946911730590675e-05	2.8964412602331044e-05	9.79999999991289	0.4999973958136027	-2.3769900320486804e-06	-0.8520778660558209
17455	309	860000000	1.4777758786461566e-06	-1.5035266629972018e-06	-1.8259556934888003e-07	0.9999999999977611	0.0	0.0	0.0	2.946911730590675e-05	2.8964412602331044e-05	9.79999999991289	0.4999973958136027	-2.3769900320486804e-06	-0.8626078470055676
17456	309	880000000	1.4777758786461566e-06	-1.5035266629972018e-06	-1.8259556934888003e-07	0.9999999999977611	0.0	0.0	0.0	2.946911730590675e-05	2.8964412602331044e-05	9.79999999991289	0.4999973958136027	-2.3769900320486804e-06	-0.8509469940542116
17457	309	900000000	1.4777758786461566e-06	-1.5035266629972018e-06	-1.8259556934888003e-07	0.9999999999977611	0.0	0.0	0.0	2.946911730590675e-05	2.8964412602331044e-05	9.79999999991289	0.4999973958136027	-2.3769900320486804e-06	-0.8978023498335488
17458	309	920000000	1.4777758786461566e-06	-1.5035266629972018e-06	-1.8259556934888003e-07	0.9999999999977611	0.0	0.0	0.0	2.946911730590675e-05	2.8964412602331044e-05	9.79999999991289	0.4999973958136027	-2.3769900320486804e-06	-0.8877231952341308
17459	309	940000000	1.4777758786461566e-06	-1.5035266629972018e-06	-1.8259556934888003e-07	0.9999999999977611	0.0	0.0	0.0	2.946911730590675e-05	2.8964412602331044e-05	9.79999999991289	0.4999973958136027	-2.3769900320486804e-06	-0.8605182274519431
17460	309	960000000	1.4777758786461566e-06	-1.5035266629972018e-06	-1.8259556934888003e-07	0.9999999999977611	0.0	0.0	0.0	2.946911730590675e-05	2.8964412602331044e-05	9.79999999991289	0.4999973958136027	-2.3769900320486804e-06	-0.8607841228580736
17461	309	980000000	1.4777758786461566e-06	-1.5035266629972018e-06	-1.8259556934888003e-07	0.9999999999977611	0.0	0.0	0.0	2.946911730590675e-05	2.8964412602331044e-05	9.79999999991289	0.4999973958136027	-2.3769900320486804e-06	-0.8806331472567065
17462	310	0	1.4777758786461566e-06	-1.5035266629972018e-06	-1.8259556934888003e-07	0.9999999999977611	0.0	0.0	0.0	2.946911730590675e-05	2.8964412602331044e-05	9.79999999991289	0.4999973958136027	-2.3769900320486804e-06	-0.8714715457432206
17463	310	20000000	1.4777758786461566e-06	-1.5035266629972018e-06	-1.8259556934888003e-07	0.9999999999977611	0.0	0.0	0.0	2.946911730590675e-05	2.8964412602331044e-05	9.79999999991289	0.4999973958136027	-2.3769900320486804e-06	-0.8796427026475571
17464	310	40000000	1.4777758786461566e-06	-1.5035266629972018e-06	-1.8259556934888003e-07	0.9999999999977611	0.0	0.0	0.0	2.946911730590675e-05	2.8964412602331044e-05	9.79999999991289	0.4999973958136027	-2.3769900320486804e-06	-0.8864220968467923
17465	310	60000000	1.4777758786461566e-06	-1.5035266629972018e-06	-1.8259556934888003e-07	0.9999999999977611	0.0	0.0	0.0	2.946911730590675e-05	2.8964412602331044e-05	9.79999999991289	0.4999973958136027	-2.3769900320486804e-06	-0.8766470679435023
17466	310	80000000	1.4777758786461566e-06	-1.5035266629972018e-06	-1.8259556934888003e-07	0.9999999999977611	0.0	0.0	0.0	2.946911730590675e-05	2.8964412602331044e-05	9.79999999991289	0.4999973958136027	-2.3769900320486804e-06	-0.881156638550703
17467	310	100000000	1.4777758786461566e-06	-1.5035266629972018e-06	-1.8259556934888003e-07	0.9999999999977611	0.0	0.0	0.0	2.946911730590675e-05	2.8964412602331044e-05	9.79999999991289	0.4999973958136027	-2.3769900320486804e-06	-0.8355237570622064
17468	310	120000000	1.4777758786461566e-06	-1.5035266629972018e-06	-1.8259556934888003e-07	0.9999999999977611	0.0	0.0	0.0	2.946911730590675e-05	2.8964412602331044e-05	9.79999999991289	0.4999973958136027	-2.3769900320486804e-06	-0.8513059965104636
17469	310	140000000	1.4777758786461566e-06	-1.5035266629972018e-06	-1.8259556934888003e-07	0.9999999999977611	0.0	0.0	0.0	2.946911730590675e-05	2.8964412602331044e-05	9.79999999991289	0.4999973958136027	-2.3769900320486804e-06	-0.8669237233731535
17470	310	160000000	1.4777758786461566e-06	-1.5035266629972018e-06	-1.8259556934888003e-07	0.9999999999977611	0.0	0.0	0.0	2.946911730590675e-05	2.8964412602331044e-05	9.79999999991289	0.4999973958136027	-2.3769900320486804e-06	-0.8704770356046667
17471	310	180000000	1.4777758786461566e-06	-1.5035266629972018e-06	-1.8259556934888003e-07	0.9999999999977611	0.0	0.0	0.0	2.946911730590675e-05	2.8964412602331044e-05	9.79999999991289	0.4999973958136027	-2.3769900320486804e-06	-0.8481744861284347
17472	310	200000000	1.4777758786461566e-06	-1.5035266629972018e-06	-1.8259556934888003e-07	0.9999999999977611	0.0	0.0	0.0	2.946911730590675e-05	2.8964412602331044e-05	9.79999999991289	0.4999973958136027	-2.3769900320486804e-06	-0.8500483796665941
17473	310	220000000	1.4777758786461566e-06	-1.5035266629972018e-06	-1.8259556934888003e-07	0.9999999999977611	0.0	0.0	0.0	2.946911730590675e-05	2.8964412602331044e-05	9.79999999991289	0.4999973958136027	-2.3769900320486804e-06	-0.8700661963471946
17474	310	240000000	1.4777758786461566e-06	-1.5035266629972018e-06	-1.8259556934888003e-07	0.9999999999977611	0.0	0.0	0.0	2.946911730590675e-05	2.8964412602331044e-05	9.79999999991289	0.4999973958136027	-2.3769900320486804e-06	-0.8691056074256865
17475	310	260000000	1.4777758786461566e-06	-1.5035266629972018e-06	-1.8259556934888003e-07	0.9999999999977611	0.0	0.0	0.0	2.946911730590675e-05	2.8964412602331044e-05	9.79999999991289	0.4999973958136027	-2.3769900320486804e-06	-0.8860607374518297
17476	310	280000000	1.4777758786461566e-06	-1.5035266629972018e-06	-1.8259556934888003e-07	0.9999999999977611	0.0	0.0	0.0	2.946911730590675e-05	2.8964412602331044e-05	9.79999999991289	0.4999973958136027	-2.3769900320486804e-06	-0.86808663625635
17477	310	300000000	1.4777758786461566e-06	-1.5035266629972018e-06	-1.8259556934888003e-07	0.9999999999977611	0.0	0.0	0.0	2.946911730590675e-05	2.8964412602331044e-05	9.79999999991289	0.4999973958136027	-2.3769900320486804e-06	-0.8467335423814591
17478	310	320000000	1.4777758786461566e-06	-1.5035266629972018e-06	-1.8259556934888003e-07	0.9999999999977611	0.0	0.0	0.0	2.946911730590675e-05	2.8964412602331044e-05	9.79999999991289	0.4999973958136027	-2.3769900320486804e-06	-0.875751118643163
17479	310	340000000	1.4777758786461566e-06	-1.5035266629972018e-06	-1.8259556934888003e-07	0.9999999999977611	0.0	0.0	0.0	2.946911730590675e-05	2.8964412602331044e-05	9.79999999991289	0.4999973958136027	-2.3769900320486804e-06	-0.887296931841778
17480	310	360000000	1.4777758786461566e-06	-1.5035266629972018e-06	-1.8259556934888003e-07	0.9999999999977611	0.0	0.0	0.0	2.946911730590675e-05	2.8964412602331044e-05	9.79999999991289	0.4999973958136027	-2.3769900320486804e-06	-0.8638830734999381
17481	310	380000000	1.4777758786461566e-06	-1.5035266629972018e-06	-1.8259556934888003e-07	0.9999999999977611	0.0	0.0	0.0	2.946911730590675e-05	2.8964412602331044e-05	9.79999999991289	0.4999973958136027	-2.3769900320486804e-06	-0.8714048057879759
17482	310	400000000	1.4777758786461566e-06	-1.5035266629972018e-06	-1.8259556934888003e-07	0.9999999999977611	0.0	0.0	0.0	2.946911730590675e-05	2.8964412602331044e-05	9.79999999991289	0.4999973958136027	-2.3769900320486804e-06	-0.8570356218972782
17483	310	420000000	1.4777758786461566e-06	-1.5035266629972018e-06	-1.8259556934888003e-07	0.9999999999977611	0.0	0.0	0.0	2.946911730590675e-05	2.8964412602331044e-05	9.79999999991289	0.4999973958136027	-2.3769900320486804e-06	-0.8667240506980455
17484	310	440000000	1.4777758786461566e-06	-1.5035266629972018e-06	-1.8259556934888003e-07	0.9999999999977611	0.0	0.0	0.0	2.946911730590675e-05	2.8964412602331044e-05	9.79999999991289	0.4999973958136027	-2.3769900320486804e-06	-0.8799397523298539
17485	310	460000000	1.4777758786461566e-06	-1.5035266629972018e-06	-1.8259556934888003e-07	0.9999999999977611	0.0	0.0	0.0	2.946911730590675e-05	2.8964412602331044e-05	9.79999999991289	0.4999973958136027	-2.3769900320486804e-06	-0.8726262202260187
17486	310	480000000	1.4777758786461566e-06	-1.5035266629972018e-06	-1.8259556934888003e-07	0.9999999999977611	0.0	0.0	0.0	2.946911730590675e-05	2.8964412602331044e-05	9.79999999991289	0.4999973958136027	-2.3769900320486804e-06	-0.8709976044324046
17487	310	500000000	1.4777758786461566e-06	-1.5035266629972018e-06	-1.8259556934888003e-07	0.9999999999977611	0.0	0.0	0.0	2.946911730590675e-05	2.8964412602331044e-05	9.79999999991289	0.4999973958136027	-2.3769900320486804e-06	-0.838739748959657
17488	310	520000000	1.4777758786461566e-06	-1.5035266629972018e-06	-1.8259556934888003e-07	0.9999999999977611	0.0	0.0	0.0	2.946911730590675e-05	2.8964412602331044e-05	9.79999999991289	0.4999973958136027	-2.3769900320486804e-06	-0.8533217270654868
17489	310	540000000	1.4777758786461566e-06	-1.5035266629972018e-06	-1.8259556934888003e-07	0.9999999999977611	0.0	0.0	0.0	2.946911730590675e-05	2.8964412602331044e-05	9.79999999991289	0.4999973958136027	-2.3769900320486804e-06	-0.8540414623826028
17490	310	560000000	1.4777758786461566e-06	-1.5035266629972018e-06	-1.8259556934888003e-07	0.9999999999977611	0.0	0.0	0.0	2.946911730590675e-05	2.8964412602331044e-05	9.79999999991289	0.4999973958136027	-2.3769900320486804e-06	-0.8432088298068922
17491	310	580000000	1.4777758786461566e-06	-1.5035266629972018e-06	-1.8259556934888003e-07	0.9999999999977611	0.0	0.0	0.0	2.946911730590675e-05	2.8964412602331044e-05	9.79999999991289	0.4999973958136027	-2.3769900320486804e-06	-0.8639647025878787
17492	310	600000000	1.4777758786461566e-06	-1.5035266629972018e-06	-1.8259556934888003e-07	0.9999999999977611	0.0	0.0	0.0	2.946911730590675e-05	2.8964412602331044e-05	9.79999999991289	0.4999973958136027	-2.3769900320486804e-06	-0.8352285961037458
17493	310	620000000	1.4777758786461566e-06	-1.5035266629972018e-06	-1.8259556934888003e-07	0.9999999999977611	0.0	0.0	0.0	2.946911730590675e-05	2.8964412602331044e-05	9.79999999991289	0.4999973958136027	-2.3769900320486804e-06	-0.8487043054687609
17494	310	640000000	1.4777758786461566e-06	-1.5035266629972018e-06	-1.8259556934888003e-07	0.9999999999977611	0.0	0.0	0.0	2.946911730590675e-05	2.8964412602331044e-05	9.79999999991289	0.4999973958136027	-2.3769900320486804e-06	-0.8849453865379332
17495	310	660000000	1.4777758786461566e-06	-1.5035266629972018e-06	-1.8259556934888003e-07	0.9999999999977611	0.0	0.0	0.0	2.946911730590675e-05	2.8964412602331044e-05	9.79999999991289	0.4999973958136027	-2.3769900320486804e-06	-0.8665901493473991
17496	310	680000000	1.4777758786461566e-06	-1.5035266629972018e-06	-1.8259556934888003e-07	0.9999999999977611	0.0	0.0	0.0	2.946911730590675e-05	2.8964412602331044e-05	9.79999999991289	0.4999973958136027	-2.3769900320486804e-06	-0.8703131259916126
17497	310	700000000	1.4777758786461566e-06	-1.5035266629972018e-06	-1.8259556934888003e-07	0.9999999999977611	0.0	0.0	0.0	2.946911730590675e-05	2.8964412602331044e-05	9.79999999991289	0.4999973958136027	-2.3769900320486804e-06	-0.85969613012269
17498	310	720000000	1.4777758786461566e-06	-1.5035266629972018e-06	-1.8259556934888003e-07	0.9999999999977611	0.0	0.0	0.0	2.946911730590675e-05	2.8964412602331044e-05	9.79999999991289	0.4999973958136027	-2.3769900320486804e-06	-0.8826461757592619
17499	310	740000000	1.4777758786461566e-06	-1.5035266629972018e-06	-1.8259556934888003e-07	0.9999999999977611	0.0	0.0	0.0	2.946911730590675e-05	2.8964412602331044e-05	9.79999999991289	0.4999973958136027	-2.3769900320486804e-06	-0.8673100018562461
17500	310	760000000	1.4777758786461566e-06	-1.5035266629972018e-06	-1.8259556934888003e-07	0.9999999999977611	0.0	0.0	0.0	2.946911730590675e-05	2.8964412602331044e-05	9.79999999991289	0.4999973958136027	-2.3769900320486804e-06	-0.8631025597222794
17501	310	780000000	1.4777758786461566e-06	-1.5035266629972018e-06	-1.8259556934888003e-07	0.9999999999977611	0.0	0.0	0.0	2.946911730590675e-05	2.8964412602331044e-05	9.79999999991289	0.4999973958136027	-2.3769900320486804e-06	-0.8695432956776268
17502	310	800000000	1.4777758786461566e-06	-1.5035266629972018e-06	-1.8259556934888003e-07	0.9999999999977611	0.0	0.0	0.0	2.946911730590675e-05	2.8964412602331044e-05	9.79999999991289	0.4999973958136027	-2.3769900320486804e-06	-0.8812905593050094
17503	310	820000000	1.4777758786461566e-06	-1.5035266629972018e-06	-1.8259556934888003e-07	0.9999999999977611	0.0	0.0	0.0	2.946911730590675e-05	2.8964412602331044e-05	9.79999999991289	0.4999973958136027	-2.3769900320486804e-06	-0.8661152033762706
17504	310	840000000	1.4777758786461566e-06	-1.5035266629972018e-06	-1.8259556934888003e-07	0.9999999999977611	0.0	0.0	0.0	2.946911730590675e-05	2.8964412602331044e-05	9.79999999991289	0.4999973958136027	-2.3769900320486804e-06	-0.8982523980206635
17505	310	860000000	1.4777758786461566e-06	-1.5035266629972018e-06	-1.8259556934888003e-07	0.9999999999977611	0.0	0.0	0.0	2.946911730590675e-05	2.8964412602331044e-05	9.79999999991289	0.4999973958136027	-2.3769900320486804e-06	-0.8447457714818135
17506	310	880000000	1.4777758786461566e-06	-1.5035266629972018e-06	-1.8259556934888003e-07	0.9999999999977611	0.0	0.0	0.0	2.946911730590675e-05	2.8964412602331044e-05	9.79999999991289	0.4999973958136027	-2.3769900320486804e-06	-0.8434792079127693
17507	310	900000000	1.4777758786461566e-06	-1.5035266629972018e-06	-1.8259556934888003e-07	0.9999999999977611	0.0	0.0	0.0	2.946911730590675e-05	2.8964412602331044e-05	9.79999999991289	0.4999973958136027	-2.3769900320486804e-06	-0.8562725188793043
17508	310	920000000	1.4777758786461566e-06	-1.5035266629972018e-06	-1.8259556934888003e-07	0.9999999999977611	0.0	0.0	0.0	2.946911730590675e-05	2.8964412602331044e-05	9.79999999991289	0.4999973958136027	-2.3769900320486804e-06	-0.8526781038920502
17509	310	940000000	1.4777758786461566e-06	-1.5035266629972018e-06	-1.8259556934888003e-07	0.9999999999977611	0.0	0.0	0.0	2.946911730590675e-05	2.8964412602331044e-05	9.79999999991289	0.4999973958136027	-2.3769900320486804e-06	-0.8818036436509474
17510	310	960000000	1.4777758786461566e-06	-1.5035266629972018e-06	-1.8259556934888003e-07	0.9999999999977611	0.0	0.0	0.0	2.946911730590675e-05	2.8964412602331044e-05	9.79999999991289	0.4999973958136027	-2.3769900320486804e-06	-0.8750021008561453
17511	310	980000000	1.4777758786461566e-06	-1.5035266629972018e-06	-1.8259556934888003e-07	0.9999999999977611	0.0	0.0	0.0	2.946911730590675e-05	2.8964412602331044e-05	9.79999999991289	0.4999973958136027	-2.3769900320486804e-06	-0.8691301571014175
17512	311	0	1.4777758786461566e-06	-1.5035266629972018e-06	-1.8259556934888003e-07	0.9999999999977611	0.0	0.0	0.0	2.946911730590675e-05	2.8964412602331044e-05	9.79999999991289	0.4999973958136027	-2.3769900320486804e-06	-0.8532425677247586
17513	311	20000000	1.4777758786461566e-06	-1.5035266629972018e-06	-1.8259556934888003e-07	0.9999999999977611	0.0	0.0	0.0	2.946911730590675e-05	2.8964412602331044e-05	9.79999999991289	0.4999973958136027	-2.3769900320486804e-06	-0.8553105513878572
17514	311	40000000	1.4777758786461566e-06	-1.5035266629972018e-06	-1.8259556934888003e-07	0.9999999999977611	0.0	0.0	0.0	2.946911730590675e-05	2.8964412602331044e-05	9.79999999991289	0.4999973958136027	-2.3769900320486804e-06	-0.8568858457454427
17515	311	60000000	1.4777758786461566e-06	-1.5035266629972018e-06	-1.8259556934888003e-07	0.9999999999977611	0.0	0.0	0.0	2.946911730590675e-05	2.8964412602331044e-05	9.79999999991289	0.4999973958136027	-2.3769900320486804e-06	-0.8633198812280664
17516	311	80000000	1.4777758786461566e-06	-1.5035266629972018e-06	-1.8259556934888003e-07	0.9999999999977611	0.0	0.0	0.0	2.946911730590675e-05	2.8964412602331044e-05	9.79999999991289	0.4999973958136027	-2.3769900320486804e-06	-0.8627618773304739
17517	311	100000000	1.4777758786461566e-06	-1.5035266629972018e-06	-1.8259556934888003e-07	0.9999999999977611	0.0	0.0	0.0	2.946911730590675e-05	2.8964412602331044e-05	9.79999999991289	0.4999973958136027	-2.3769900320486804e-06	-0.8924303519116372
17518	311	120000000	1.4777758786461566e-06	-1.5035266629972018e-06	-1.8259556934888003e-07	0.9999999999977611	0.0	0.0	0.0	2.946911730590675e-05	2.8964412602331044e-05	9.79999999991289	0.4999973958136027	-2.3769900320486804e-06	-0.8632990129482462
17519	311	140000000	1.4777758786461566e-06	-1.5035266629972018e-06	-1.8259556934888003e-07	0.9999999999977611	0.0	0.0	0.0	2.946911730590675e-05	2.8964412602331044e-05	9.79999999991289	0.4999973958136027	-2.3769900320486804e-06	-0.8688419716275594
17520	311	160000000	1.4777758786461566e-06	-1.5035266629972018e-06	-1.8259556934888003e-07	0.9999999999977611	0.0	0.0	0.0	2.946911730590675e-05	2.8964412602331044e-05	9.79999999991289	0.4999973958136027	-2.3769900320486804e-06	-0.8580031650551351
17521	311	180000000	1.4777758786461566e-06	-1.5035266629972018e-06	-1.8259556934888003e-07	0.9999999999977611	0.0	0.0	0.0	2.946911730590675e-05	2.8964412602331044e-05	9.79999999991289	0.4999973958136027	-2.3769900320486804e-06	-0.8892519282065412
17522	311	200000000	1.4777758786461566e-06	-1.5035266629972018e-06	-1.8259556934888003e-07	0.9999999999977611	0.0	0.0	0.0	2.946911730590675e-05	2.8964412602331044e-05	9.79999999991289	0.4999973958136027	-2.3769900320486804e-06	-0.8678151756868189
17523	311	220000000	1.4777758786461566e-06	-1.5035266629972018e-06	-1.8259556934888003e-07	0.9999999999977611	0.0	0.0	0.0	2.946911730590675e-05	2.8964412602331044e-05	9.79999999991289	0.4999973958136027	-2.3769900320486804e-06	-0.8536451599346006
17524	311	240000000	1.4777758786461566e-06	-1.5035266629972018e-06	-1.8259556934888003e-07	0.9999999999977611	0.0	0.0	0.0	2.946911730590675e-05	2.8964412602331044e-05	9.79999999991289	0.4999973958136027	-2.3769900320486804e-06	-0.8635942737093887
17525	311	260000000	1.4777758786461566e-06	-1.5035266629972018e-06	-1.8259556934888003e-07	0.9999999999977611	0.0	0.0	0.0	2.946911730590675e-05	2.8964412602331044e-05	9.79999999991289	0.4999973958136027	-2.3769900320486804e-06	-0.8824337391147207
17526	311	280000000	1.4777758786461566e-06	-1.5035266629972018e-06	-1.8259556934888003e-07	0.9999999999977611	0.0	0.0	0.0	2.946911730590675e-05	2.8964412602331044e-05	9.79999999991289	0.4999973958136027	-2.3769900320486804e-06	-0.870640312675171
17527	311	300000000	1.4777758786461566e-06	-1.5035266629972018e-06	-1.8259556934888003e-07	0.9999999999977611	0.0	0.0	0.0	2.946911730590675e-05	2.8964412602331044e-05	9.79999999991289	0.4999973958136027	-2.3769900320486804e-06	-0.871808029502235
17528	311	320000000	1.4777758786461566e-06	-1.5035266629972018e-06	-1.8259556934888003e-07	0.9999999999977611	0.0	0.0	0.0	2.946911730590675e-05	2.8964412602331044e-05	9.79999999991289	0.4999973958136027	-2.3769900320486804e-06	-0.8770758348544263
17529	311	340000000	1.4777758786461566e-06	-1.5035266629972018e-06	-1.8259556934888003e-07	0.9999999999977611	0.0	0.0	0.0	2.946911730590675e-05	2.8964412602331044e-05	9.79999999991289	0.4999973958136027	-2.3769900320486804e-06	-0.8674328198205037
17530	311	360000000	1.4777758786461566e-06	-1.5035266629972018e-06	-1.8259556934888003e-07	0.9999999999977611	0.0	0.0	0.0	2.946911730590675e-05	2.8964412602331044e-05	9.79999999991289	0.4999973958136027	-2.3769900320486804e-06	-0.8746012861925092
17531	311	380000000	1.4777758786461566e-06	-1.5035266629972018e-06	-1.8259556934888003e-07	0.9999999999977611	0.0	0.0	0.0	2.946911730590675e-05	2.8964412602331044e-05	9.79999999991289	0.4999973958136027	-2.3769900320486804e-06	-0.8675601325370769
17532	311	400000000	1.4777758786461566e-06	-1.5035266629972018e-06	-1.8259556934888003e-07	0.9999999999977611	0.0	0.0	0.0	2.946911730590675e-05	2.8964412602331044e-05	9.79999999991289	0.4999973958136027	-2.3769900320486804e-06	-0.8754761269272362
17533	311	420000000	1.4777758786461566e-06	-1.5035266629972018e-06	-1.8259556934888003e-07	0.9999999999977611	0.0	0.0	0.0	2.946911730590675e-05	2.8964412602331044e-05	9.79999999991289	0.4999973958136027	-2.3769900320486804e-06	-0.9032462088819102
17534	311	440000000	1.4777758786461566e-06	-1.5035266629972018e-06	-1.8259556934888003e-07	0.9999999999977611	0.0	0.0	0.0	2.946911730590675e-05	2.8964412602331044e-05	9.79999999991289	0.4999973958136027	-2.3769900320486804e-06	-0.8682767161187019
17535	311	460000000	1.4777758786461566e-06	-1.5035266629972018e-06	-1.8259556934888003e-07	0.9999999999977611	0.0	0.0	0.0	2.946911730590675e-05	2.8964412602331044e-05	9.79999999991289	0.4999973958136027	-2.3769900320486804e-06	-0.85709401844709
17536	311	480000000	1.4777758786461566e-06	-1.5035266629972018e-06	-1.8259556934888003e-07	0.9999999999977611	0.0	0.0	0.0	2.946911730590675e-05	2.8964412602331044e-05	9.79999999991289	0.4999973958136027	-2.3769900320486804e-06	-0.8930961299800229
17537	311	500000000	1.4777758786461566e-06	-1.5035266629972018e-06	-1.8259556934888003e-07	0.9999999999977611	0.0	0.0	0.0	2.946911730590675e-05	2.8964412602331044e-05	9.79999999991289	0.4999973958136027	-2.3769900320486804e-06	-0.8503482875053803
17538	311	520000000	1.4777758786461566e-06	-1.5035266629972018e-06	-1.8259556934888003e-07	0.9999999999977611	0.0	0.0	0.0	2.946911730590675e-05	2.8964412602331044e-05	9.79999999991289	0.4999973958136027	-2.3769900320486804e-06	-0.8604556349906334
17539	311	540000000	1.4777758786461566e-06	-1.5035266629972018e-06	-1.8259556934888003e-07	0.9999999999977611	0.0	0.0	0.0	2.946911730590675e-05	2.8964412602331044e-05	9.79999999991289	0.4999973958136027	-2.3769900320486804e-06	-0.8704811368564102
17540	311	560000000	1.4777758786461566e-06	-1.5035266629972018e-06	-1.8259556934888003e-07	0.9999999999977611	0.0	0.0	0.0	2.946911730590675e-05	2.8964412602331044e-05	9.79999999991289	0.4999973958136027	-2.3769900320486804e-06	-0.865431866698579
17541	311	580000000	1.4777758786461566e-06	-1.5035266629972018e-06	-1.8259556934888003e-07	0.9999999999977611	0.0	0.0	0.0	2.946911730590675e-05	2.8964412602331044e-05	9.79999999991289	0.4999973958136027	-2.3769900320486804e-06	-0.8652538567683224
17542	311	600000000	1.4777758786461566e-06	-1.5035266629972018e-06	-1.8259556934888003e-07	0.9999999999977611	0.0	0.0	0.0	2.946911730590675e-05	2.8964412602331044e-05	9.79999999991289	0.4999973958136027	-2.3769900320486804e-06	-0.8692373313919124
17543	311	620000000	1.4777758786461566e-06	-1.5035266629972018e-06	-1.8259556934888003e-07	0.9999999999977611	0.0	0.0	0.0	2.946911730590675e-05	2.8964412602331044e-05	9.79999999991289	0.4999973958136027	-2.3769900320486804e-06	-0.8837438805717829
17544	311	640000000	1.4777758786461566e-06	-1.5035266629972018e-06	-1.8259556934888003e-07	0.9999999999977611	0.0	0.0	0.0	2.946911730590675e-05	2.8964412602331044e-05	9.79999999991289	0.4999973958136027	-2.3769900320486804e-06	-0.8571494353631123
17545	311	660000000	1.4777758786461566e-06	-1.5035266629972018e-06	-1.8259556934888003e-07	0.9999999999977611	0.0	0.0	0.0	2.946911730590675e-05	2.8964412602331044e-05	9.79999999991289	0.4999973958136027	-2.3769900320486804e-06	-0.874492606155505
17546	311	680000000	1.4777758786461566e-06	-1.5035266629972018e-06	-1.8259556934888003e-07	0.9999999999977611	0.0	0.0	0.0	2.946911730590675e-05	2.8964412602331044e-05	9.79999999991289	0.4999973958136027	-2.3769900320486804e-06	-0.879255826365646
17547	311	700000000	1.4777758786461566e-06	-1.5035266629972018e-06	-1.8259556934888003e-07	0.9999999999977611	0.0	0.0	0.0	2.946911730590675e-05	2.8964412602331044e-05	9.79999999991289	0.4999973958136027	-2.3769900320486804e-06	-0.8675927728973066
17548	311	720000000	1.4777758786461566e-06	-1.5035266629972018e-06	-1.8259556934888003e-07	0.9999999999977611	0.0	0.0	0.0	2.946911730590675e-05	2.8964412602331044e-05	9.79999999991289	0.4999973958136027	-2.3769900320486804e-06	-0.8543007973402573
17549	311	740000000	1.4777758786461566e-06	-1.5035266629972018e-06	-1.8259556934888003e-07	0.9999999999977611	0.0	0.0	0.0	2.946911730590675e-05	2.8964412602331044e-05	9.79999999991289	0.4999973958136027	-2.3769900320486804e-06	-0.8443903657378179
17550	311	760000000	1.4777758786461566e-06	-1.5035266629972018e-06	-1.8259556934888003e-07	0.9999999999977611	0.0	0.0	0.0	2.946911730590675e-05	2.8964412602331044e-05	9.79999999991289	0.4999973958136027	-2.3769900320486804e-06	-0.8628289068197372
17551	311	780000000	1.4777758786461566e-06	-1.5035266629972018e-06	-1.8259556934888003e-07	0.9999999999977611	0.0	0.0	0.0	2.946911730590675e-05	2.8964412602331044e-05	9.79999999991289	0.4999973958136027	-2.3769900320486804e-06	-0.8575403940577738
17552	311	800000000	1.4777758786461566e-06	-1.5035266629972018e-06	-1.8259556934888003e-07	0.9999999999977611	0.0	0.0	0.0	2.946911730590675e-05	2.8964412602331044e-05	9.79999999991289	0.4999973958136027	-2.3769900320486804e-06	-0.8759023091942191
17553	311	820000000	1.4777758786461566e-06	-1.5035266629972018e-06	-1.8259556934888003e-07	0.9999999999977611	0.0	0.0	0.0	2.946911730590675e-05	2.8964412602331044e-05	9.79999999991289	0.4999973958136027	-2.3769900320486804e-06	-0.8615534992169469
17554	311	840000000	1.4777758786461566e-06	-1.5035266629972018e-06	-1.8259556934888003e-07	0.9999999999977611	0.0	0.0	0.0	2.946911730590675e-05	2.8964412602331044e-05	9.79999999991289	0.4999973958136027	-2.3769900320486804e-06	-0.8822053441231746
17555	311	860000000	1.4777758786461566e-06	-1.5035266629972018e-06	-1.8259556934888003e-07	0.9999999999977611	0.0	0.0	0.0	2.946911730590675e-05	2.8964412602331044e-05	9.79999999991289	0.4999973958136027	-2.3769900320486804e-06	-0.8690441322183087
17556	311	880000000	1.4777758786461566e-06	-1.5035266629972018e-06	-1.8259556934888003e-07	0.9999999999977611	0.0	0.0	0.0	2.946911730590675e-05	2.8964412602331044e-05	9.79999999991289	0.4999973958136027	-2.3769900320486804e-06	-0.8426190854187512
17557	311	900000000	1.4777758786461566e-06	-1.5035266629972018e-06	-1.8259556934888003e-07	0.9999999999977611	0.0	0.0	0.0	2.946911730590675e-05	2.8964412602331044e-05	9.79999999991289	0.4999973958136027	-2.3769900320486804e-06	-0.8723908358146576
17558	311	920000000	1.4777758786461566e-06	-1.5035266629972018e-06	-1.8259556934888003e-07	0.9999999999977611	0.0	0.0	0.0	2.946911730590675e-05	2.8964412602331044e-05	9.79999999991289	0.4999973958136027	-2.3769900320486804e-06	-0.8883981410619703
17559	311	940000000	1.4777758786461566e-06	-1.5035266629972018e-06	-1.8259556934888003e-07	0.9999999999977611	0.0	0.0	0.0	2.946911730590675e-05	2.8964412602331044e-05	9.79999999991289	0.4999973958136027	-2.3769900320486804e-06	-0.8579198448056983
17560	311	960000000	1.4777758786461566e-06	-1.5035266629972018e-06	-1.8259556934888003e-07	0.9999999999977611	0.0	0.0	0.0	2.946911730590675e-05	2.8964412602331044e-05	9.79999999991289	0.4999973958136027	-2.3769900320486804e-06	-0.8554062071127511
17561	311	980000000	1.4777758786461566e-06	-1.5035266629972018e-06	-1.8259556934888003e-07	0.9999999999977611	0.0	0.0	0.0	2.946911730590675e-05	2.8964412602331044e-05	9.79999999991289	0.4999973958136027	-2.3769900320486804e-06	-0.8735354357136775
17562	312	0	1.4777758786461566e-06	-1.5035266629972018e-06	-1.8259556934888003e-07	0.9999999999977611	0.0	0.0	0.0	2.946911730590675e-05	2.8964412602331044e-05	9.79999999991289	0.4999973958136027	-2.3769900320486804e-06	-0.8723858031997348
17563	312	20000000	1.4777758786461566e-06	-1.5035266629972018e-06	-1.8259556934888003e-07	0.9999999999977611	0.0	0.0	0.0	2.946911730590675e-05	2.8964412602331044e-05	9.79999999991289	0.4999973958136027	-2.3769900320486804e-06	-0.8825118648173748
17564	312	40000000	1.4777758786461566e-06	-1.5035266629972018e-06	-1.8259556934888003e-07	0.9999999999977611	0.0	0.0	0.0	2.946911730590675e-05	2.8964412602331044e-05	9.79999999991289	0.4999973958136027	-2.3769900320486804e-06	-0.8658073631132452
17565	312	60000000	1.4777758786461566e-06	-1.5035266629972018e-06	-1.8259556934888003e-07	0.9999999999977611	0.0	0.0	0.0	2.946911730590675e-05	2.8964412602331044e-05	9.79999999991289	0.4999973958136027	-2.3769900320486804e-06	-0.8458824493054167
